Time,Device name,Chip Time(),Acceleration X(g),Acceleration Y(g),Acceleration Z(g),Angular velocity X(°/s),Angular velocity Y(°/s),Angular velocity Z(°/s),Angle X(°),Angle Y(°),Angle Z(°),Magnetic field X(ʯt),Magnetic field Y(ʯt),Magnetic field Z(ʯt),Temperature(℃),Pressure(Pa),Height(m),Longitude(),Latitude(),GPS ground speed(km),Angle of course(°),GPS height(m),Number of satellites(),Position location(),Horizontal position(),Vertical position(),Quaternions 0(),Quaternions 1(),Quaternions 2(),Quaternions 3()
 13:56:19.154,COM3,, -0.0015, -0.0156, 1.0010, -1.2817, -0.4883, 0.1831, -3.115, -0.786, -13.129, -5.740, 23.860, -11.693, 27.30,,,,,,,,,,,, 0.99298, -0.02777, -0.00372, -0.11444,
 13:56:20.056,COM3,, -0.0015, -0.0156, 1.0010, -1.2817, -0.4883, 0.1831, -3.115, -0.786, -13.129, -5.747, 23.860, -11.700, 27.30,,,,,,,,,,,, 0.99298, -0.02777, -0.00372, -0.11447,
 13:56:20.056,COM3,, -0.0010, -0.0156, 1.0010, -1.2817, -0.4883, 0.1831, -3.115, -0.786, -13.129, -5.767, 23.860, -11.700, 27.30,,,,,,,,,,,, 0.99298, -0.02777, -0.00372, -0.11447,
 13:56:20.071,COM3,, -0.0010, -0.0151, 1.0010, -1.2817, -0.4883, 0.1831, -3.115, -0.786, -13.129, -5.767, 23.853, -11.713, 27.27,,,,,,,,,,,, 0.99298, -0.02777, -0.00372, -0.11447,
 13:56:20.072,COM3,, -0.0010, -0.0151, 1.0010, -1.2817, -0.4883, 0.1831, -3.115, -0.786, -13.129, -5.753, 23.860, -11.733, 27.27,,,,,,,,,,,, 0.99298, -0.02777, -0.00372, -0.11447,
 13:56:20.072,COM3,, -0.0010, -0.0151, 1.0010, -1.2817, -0.4883, 0.1831, -3.115, -0.786, -13.129, -5.740, 23.860, -11.747, 27.27,,,,,,,,,,,, 0.99298, -0.02777, -0.00372, -0.11447,
 13:56:20.072,COM3,, 0.0000, -0.0151, 1.0010, -1.2817, -0.4883, 0.1831, -3.115, -0.786, -13.129, -5.727, 23.867, -11.753, 27.27,,,,,,,,,,,, 0.99298, -0.02777, -0.00372, -0.11450,
 13:56:20.072,COM3,, 0.0000, -0.0166, 1.0015, -1.2817, -0.4883, 0.1831, -3.109, -0.786, -13.134, -5.720, 23.887, -11.760, 27.33,,,,,,,,,,,, 0.99298, -0.02777, -0.00372, -0.11450,
 13:56:20.072,COM3,, 0.0000, -0.0166, 1.0015, -1.2817, -0.4883, 0.1831, -3.109, -0.786, -13.134, -5.713, 23.900, -11.773, 27.33,,,,,,,,,,,, 0.99298, -0.02777, -0.00372, -0.11450,
 13:56:20.072,COM3,, 0.0000, -0.0166, 1.0015, -1.2817, -0.4883, 0.1831, -3.109, -0.786, -13.134, -5.727, 23.920, -11.767, 27.33,,,,,,,,,,,, 0.99298, -0.02777, -0.00372, -0.11450,
 13:56:20.072,COM3,, 0.0005, -0.0166, 1.0015, -1.2817, -0.4883, 0.1831, -3.109, -0.786, -13.134, -5.760, 23.933, -11.780, 27.33,,,,,,,,,,,, 0.99298, -0.02777, -0.00372, -0.11450,
 13:56:20.072,COM3,, 0.0005, -0.0176, 1.0015, -1.2817, -0.4883, 0.1831, -3.109, -0.786, -13.134, -5.773, 23.940, -11.780, 27.36,,,,,,,,,,,, 0.99298, -0.02777, -0.00372, -0.11450,
 13:56:20.072,COM3,, 0.0005, -0.0176, 1.0015, -1.2817, -0.4883, 0.1831, -3.109, -0.786, -13.134, -5.773, 23.940, -11.780, 27.36,,,,,,,,,,,, 0.99298, -0.02777, -0.00372, -0.11450,
 13:56:20.072,COM3,, 0.0005, -0.0176, 1.0015, -1.2817, -0.4883, 0.1831, -3.109, -0.786, -13.134, -5.773, 23.933, -11.780, 27.36,,,,,,,,,,,, 0.99298, -0.02777, -0.00372, -0.11450,
 13:56:20.073,COM3,, 0.0010, -0.0176, 1.0015, -1.2817, -0.4883, 0.1831, -3.109, -0.786, -13.134, -5.780, 23.920, -11.787, 27.36,,,,,,,,,,,, 0.99298, -0.02777, -0.00372, -0.11453,
 13:56:20.073,COM3,, 0.0010, -0.0181, 1.0015, -1.3428, -0.4883, 0.2441, -3.109, -0.786, -13.134, -5.807, 23.900, -11.787, 27.30,,,,,,,,,,,, 0.99298, -0.02777, -0.00372, -0.11453,
 13:56:20.073,COM3,, 0.0010, -0.0181, 1.0015, -1.3428, -0.4883, 0.2441, -3.109, -0.786, -13.134, -5.833, 23.900, -11.787, 27.30,,,,,,,,,,,, 0.99298, -0.02777, -0.00372, -0.11453,
 13:56:20.073,COM3,, 0.0010, -0.0181, 1.0015, -1.3428, -0.4883, 0.2441, -3.109, -0.786, -13.140, -5.847, 23.907, -11.773, 27.30,,,,,,,,,,,, 0.99298, -0.02777, -0.00372, -0.11453,
 13:56:20.073,COM3,, 0.0000, -0.0181, 1.0015, -1.3428, -0.4883, 0.2441, -3.109, -0.786, -13.140, -5.840, 23.920, -11.760, 27.30,,,,,,,,,,,, 0.99298, -0.02777, -0.00372, -0.11456,
 13:56:20.073,COM3,, 0.0000, -0.0171, 1.0020, -1.2817, -0.4883, 0.2441, -3.109, -0.786, -13.140, -5.800, 23.933, -11.747, 27.30,,,,,,,,,,,, 0.99298, -0.02777, -0.00372, -0.11456,
 13:56:20.073,COM3,, 0.0000, -0.0171, 1.0020, -1.2817, -0.4883, 0.2441, -3.109, -0.786, -13.140, -5.753, 23.947, -11.747, 27.30,,,,,,,,,,,, 0.99298, -0.02777, -0.00372, -0.11456,
 13:56:20.073,COM3,, 0.0000, -0.0171, 1.0020, -1.2817, -0.4883, 0.2441, -3.109, -0.786, -13.140, -5.707, 23.953, -11.740, 27.30,,,,,,,,,,,, 0.99298, -0.02777, -0.00372, -0.11456,
 13:56:20.073,COM3,, -0.0015, -0.0171, 1.0020, -1.2817, -0.4883, 0.2441, -3.109, -0.786, -13.140, -5.673, 23.947, -11.753, 27.30,,,,,,,,,,,, 0.99298, -0.02777, -0.00372, -0.11456,
 13:56:20.073,COM3,, -0.0015, -0.0146, 1.0010, -1.3428, -0.4883, 0.1831, -3.109, -0.786, -13.140, -5.640, 23.940, -11.760, 27.25,,,,,,,,,,,, 0.99298, -0.02777, -0.00372, -0.11453,
 13:56:20.073,COM3,, -0.0015, -0.0146, 1.0010, -1.3428, -0.4883, 0.1831, -3.109, -0.786, -13.140, -5.627, 23.940, -11.753, 27.25,,,,,,,,,,,, 0.99298, -0.02777, -0.00372, -0.11453,
 13:56:20.073,COM3,, -0.0015, -0.0146, 1.0010, -1.3428, -0.4883, 0.1831, -3.109, -0.786, -13.140, -5.607, 23.933, -11.740, 27.25,,,,,,,,,,,, 0.99298, -0.02777, -0.00372, -0.11453,
 13:56:20.073,COM3,, -0.0015, -0.0146, 1.0010, -1.3428, -0.4883, 0.1831, -3.109, -0.786, -13.134, -5.607, 23.933, -11.720, 27.25,,,,,,,,,,,, 0.99298, -0.02777, -0.00372, -0.11453,
 13:56:20.074,COM3,, -0.0015, -0.0137, 1.0015, -1.3428, -0.4883, 0.1831, -3.109, -0.786, -13.134, -5.607, 23.947, -11.707, 27.30,,,,,,,,,,,, 0.99298, -0.02777, -0.00372, -0.11453,
 13:56:20.074,COM3,, -0.0015, -0.0137, 1.0015, -1.3428, -0.4883, 0.1831, -3.115, -0.786, -13.134, -5.587, 23.953, -11.687, 27.30,,,,,,,,,,,, 0.99298, -0.02777, -0.00372, -0.11453,
 13:56:20.074,COM3,, -0.0015, -0.0137, 1.0015, -1.3428, -0.4883, 0.1831, -3.115, -0.786, -13.134, -5.593, 23.940, -11.667, 27.30,,,,,,,,,,,, 0.99298, -0.02777, -0.00372, -0.11450,
 13:56:20.074,COM3,, -0.0010, -0.0137, 1.0015, -1.3428, -0.4883, 0.1831, -3.115, -0.786, -13.134, -5.593, 23.933, -11.660, 27.30,,,,,,,,,,,, 0.99298, -0.02777, -0.00372, -0.11450,
 13:56:20.074,COM3,, -0.0010, -0.0137, 1.0015, -1.2817, -0.5493, 0.1831, -3.115, -0.786, -13.134, -5.600, 23.927, -11.647, 27.28,,,,,,,,,,,, 0.99298, -0.02777, -0.00372, -0.11450,
 13:56:20.074,COM3,, -0.0010, -0.0137, 1.0015, -1.2817, -0.5493, 0.1831, -3.109, -0.786, -13.134, -5.633, 23.907, -11.633, 27.28,,,,,,,,,,,, 0.99298, -0.02777, -0.00372, -0.11450,
 13:56:20.074,COM3,, -0.0010, -0.0137, 1.0015, -1.2817, -0.5493, 0.1831, -3.109, -0.786, -13.134, -5.647, 23.900, -11.627, 27.28,,,,,,,,,,,, 0.99298, -0.02777, -0.00372, -0.11450,
 13:56:20.074,COM3,, 0.0000, -0.0137, 1.0015, -1.2817, -0.5493, 0.1831, -3.109, -0.786, -13.134, -5.660, 23.893, -11.620, 27.28,,,,,,,,,,,, 0.99298, -0.02777, -0.00372, -0.11450,
 13:56:20.074,COM3,, 0.0000, -0.0151, 1.0015, -1.3428, -0.4883, 0.1831, -3.109, -0.786, -13.134, -5.667, 23.887, -11.627, 27.33,,,,,,,,,,,, 0.99298, -0.02777, -0.00372, -0.11450,
 13:56:20.074,COM3,, 0.0000, -0.0151, 1.0015, -1.3428, -0.4883, 0.1831, -3.109, -0.786, -13.134, -5.660, 23.880, -11.620, 27.33,,,,,,,,,,,, 0.99298, -0.02777, -0.00372, -0.11450,
 13:56:20.074,COM3,, 0.0000, -0.0151, 1.0015, -1.3428, -0.4883, 0.1831, -3.109, -0.786, -13.134, -5.660, 23.880, -11.620, 27.33,,,,,,,,,,,, 0.99298, -0.02777, -0.00372, -0.11450,
 13:56:20.075,COM3,, 0.0010, -0.0151, 1.0015, -1.3428, -0.4883, 0.1831, -3.109, -0.786, -13.134, -5.667, 23.880, -11.627, 27.33,,,,,,,,,,,, 0.99298, -0.02777, -0.00372, -0.11450,
 13:56:20.075,COM3,, 0.0010, -0.0171, 1.0015, -1.2817, -0.4883, 0.1831, -3.109, -0.786, -13.134, -5.680, 23.887, -11.627, 27.30,,,,,,,,,,,, 0.99298, -0.02777, -0.00372, -0.11450,
 13:56:20.075,COM3,, 0.0010, -0.0171, 1.0015, -1.2817, -0.4883, 0.1831, -3.109, -0.786, -13.134, -5.707, 23.907, -11.627, 27.30,,,,,,,,,,,, 0.99298, -0.02777, -0.00372, -0.11450,
 13:56:20.075,COM3,, 0.0010, -0.0171, 1.0015, -1.2817, -0.4883, 0.1831, -3.109, -0.786, -13.134, -5.727, 23.920, -11.627, 27.30,,,,,,,,,,,, 0.99298, -0.02774, -0.00372, -0.11450,
 13:56:20.075,COM3,, 0.0005, -0.0171, 1.0015, -1.2817, -0.4883, 0.1831, -3.109, -0.786, -13.134, -5.740, 23.940, -11.613, 27.30,,,,,,,,,,,, 0.99298, -0.02774, -0.00372, -0.11450,
 13:56:20.075,COM3,, 0.0005, -0.0190, 1.0010, -1.3428, -0.4883, 0.1831, -3.109, -0.786, -13.134, -5.733, 23.947, -11.593, 27.33,,,,,,,,,,,, 0.99298, -0.02774, -0.00372, -0.11450,
 13:56:20.075,COM3,, 0.0005, -0.0190, 1.0010, -1.3428, -0.4883, 0.1831, -3.109, -0.786, -13.134, -5.720, 23.953, -11.573, 27.33,,,,,,,,,,,, 0.99298, -0.02774, -0.00372, -0.11450,
 13:56:20.075,COM3,, 0.0005, -0.0190, 1.0010, -1.3428, -0.4883, 0.1831, -3.109, -0.786, -13.134, -5.720, 23.960, -11.560, 27.33,,,,,,,,,,,, 0.99298, -0.02777, -0.00372, -0.11450,
 13:56:20.076,COM3,, -0.0005, -0.0190, 1.0010, -1.3428, -0.4883, 0.1831, -3.109, -0.786, -13.134, -5.733, 23.960, -11.573, 27.33,,,,,,,,,,,, 0.99298, -0.02777, -0.00372, -0.11453,
 13:56:20.076,COM3,, -0.0005, -0.0181, 1.0010, -1.2817, -0.4883, 0.2441, -3.109, -0.786, -13.134, -5.740, 23.953, -11.600, 27.30,,,,,,,,,,,, 0.99298, -0.02777, -0.00372, -0.11453,
 13:56:20.076,COM3,, -0.0005, -0.0181, 1.0010, -1.2817, -0.4883, 0.2441, -3.109, -0.786, -13.134, -5.747, 23.953, -11.653, 27.30,,,,,,,,,,,, 0.99298, -0.02777, -0.00372, -0.11453,
 13:56:20.076,COM3,, -0.0005, -0.0181, 1.0010, -1.2817, -0.4883, 0.2441, -3.109, -0.786, -13.134, -5.740, 23.947, -11.713, 27.30,,,,,,,,,,,, 0.99298, -0.02774, -0.00372, -0.11453,
 13:56:20.076,COM3,, -0.0015, -0.0181, 1.0010, -1.2817, -0.4883, 0.2441, -3.109, -0.786, -13.134, -5.733, 23.947, -11.753, 27.30,,,,,,,,,,,, 0.99298, -0.02774, -0.00372, -0.11453,
 13:56:20.076,COM3,, -0.0015, -0.0166, 1.0020, -1.3428, -0.4883, 0.1831, -3.109, -0.786, -13.134, -5.747, 23.947, -11.760, 27.33,,,,,,,,,,,, 0.99298, -0.02777, -0.00372, -0.11453,
 13:56:20.076,COM3,, -0.0015, -0.0166, 1.0020, -1.3428, -0.4883, 0.1831, -3.109, -0.786, -13.134, -5.733, 23.947, -11.720, 27.33,,,,,,,,,,,, 0.99298, -0.02777, -0.00372, -0.11453,
 13:56:20.076,COM3,, -0.0015, -0.0166, 1.0020, -1.3428, -0.4883, 0.1831, -3.109, -0.786, -13.134, -5.753, 23.947, -11.680, 27.33,,,,,,,,,,,, 0.99298, -0.02777, -0.00372, -0.11453,
 13:56:20.076,COM3,, 0.0000, -0.0166, 1.0020, -1.3428, -0.4883, 0.1831, -3.109, -0.786, -13.134, -5.767, 23.940, -11.667, 27.33,,,,,,,,,,,, 0.99298, -0.02777, -0.00372, -0.11453,
 13:56:20.077,COM3,, 0.0000, -0.0151, 1.0010, -1.3428, -0.4883, 0.2441, -3.109, -0.786, -13.140, -5.773, 23.933, -11.653, 27.30,,,,,,,,,,,, 0.99298, -0.02777, -0.00372, -0.11453,
 13:56:20.077,COM3,, 0.0000, -0.0151, 1.0010, -1.3428, -0.4883, 0.2441, -3.109, -0.786, -13.140, -5.800, 23.913, -11.673, 27.30,,,,,,,,,,,, 0.99298, -0.02777, -0.00372, -0.11453,
 13:56:20.077,COM3,, 0.0000, -0.0151, 1.0010, -1.3428, -0.4883, 0.2441, -3.109, -0.786, -13.140, -5.820, 23.893, -11.700, 27.30,,,,,,,,,,,, 0.99298, -0.02777, -0.00372, -0.11456,
 13:56:20.077,COM3,, 0.0005, -0.0151, 1.0010, -1.3428, -0.4883, 0.2441, -3.109, -0.786, -13.140, -5.833, 23.887, -11.713, 27.30,,,,,,,,,,,, 0.99298, -0.02777, -0.00372, -0.11456,
 13:56:20.077,COM3,, 0.0005, -0.0146, 1.0020, -1.3428, -0.4883, 0.2441, -3.109, -0.786, -13.140, -5.840, 23.880, -11.707, 27.27,,,,,,,,,,,, 0.99298, -0.02777, -0.00372, -0.11456,
 13:56:20.077,COM3,, 0.0005, -0.0146, 1.0020, -1.3428, -0.4883, 0.2441, -3.115, -0.786, -13.140, -5.840, 23.887, -11.727, 27.27,,,,,,,,,,,, 0.99298, -0.02777, -0.00372, -0.11456,
 13:56:20.077,COM3,, 0.0005, -0.0146, 1.0020, -1.3428, -0.4883, 0.2441, -3.115, -0.786, -13.140, -5.847, 23.900, -11.733, 27.27,,,,,,,,,,,, 0.99298, -0.02777, -0.00372, -0.11456,
 13:56:20.077,COM3,, 0.0000, -0.0146, 1.0020, -1.3428, -0.4883, 0.2441, -3.115, -0.786, -13.145, -5.847, 23.920, -11.740, 27.27,,,,,,,,,,,, 0.99298, -0.02777, -0.00372, -0.11459,
 13:56:20.077,COM3,, 0.0000, -0.0142, 1.0015, -1.2817, -0.4883, 0.2441, -3.115, -0.786, -13.145, -5.860, 23.933, -11.753, 27.30,,,,,,,,,,,, 0.99298, -0.02777, -0.00372, -0.11459,
 13:56:20.077,COM3,, 0.0000, -0.0142, 1.0015, -1.2817, -0.4883, 0.2441, -3.109, -0.786, -13.145, -5.887, 23.960, -11.753, 27.30,,,,,,,,,,,, 0.99298, -0.02777, -0.00372, -0.11459,
 13:56:20.078,COM3,, 0.0000, -0.0142, 1.0015, -1.2817, -0.4883, 0.2441, -3.109, -0.786, -13.145, -5.900, 23.973, -11.740, 27.30,,,,,,,,,,,, 0.99298, -0.02777, -0.00372, -0.11462,
 13:56:20.078,COM3,, 0.0000, -0.0142, 1.0015, -1.2817, -0.4883, 0.2441, -3.109, -0.786, -13.145, -5.913, 23.973, -11.733, 27.30,,,,,,,,,,,, 0.99298, -0.02777, -0.00372, -0.11462,
 13:56:20.078,COM3,, 0.0000, -0.0151, 1.0010, -1.3428, -0.4883, 0.2441, -3.109, -0.786, -13.145, -5.920, 23.973, -11.720, 27.31,,,,,,,,,,,, 0.99295, -0.02777, -0.00372, -0.11462,
 13:56:20.078,COM3,, 0.0000, -0.0151, 1.0010, -1.3428, -0.4883, 0.2441, -3.109, -0.786, -13.151, -5.920, 23.973, -11.693, 27.31,,,,,,,,,,,, 0.99295, -0.02777, -0.00372, -0.11465,
 13:56:20.078,COM3,, 0.0000, -0.0151, 1.0010, -1.3428, -0.4883, 0.2441, -3.109, -0.786, -13.151, -5.913, 23.960, -11.680, 27.31,,,,,,,,,,,, 0.99295, -0.02777, -0.00372, -0.11465,
 13:56:20.078,COM3,, -0.0010, -0.0151, 1.0010, -1.3428, -0.4883, 0.2441, -3.109, -0.786, -13.151, -5.880, 23.973, -11.647, 27.31,,,,,,,,,,,, 0.99295, -0.02777, -0.00372, -0.11465,
 13:56:20.078,COM3,, -0.0010, -0.0161, 1.0015, -1.3428, -0.4883, 0.1831, -3.109, -0.786, -13.151, -5.860, 23.967, -11.620, 27.30,,,,,,,,,,,, 0.99295, -0.02777, -0.00372, -0.11465,
 13:56:20.078,COM3,, -0.0010, -0.0161, 1.0015, -1.3428, -0.4883, 0.1831, -3.109, -0.786, -13.151, -5.847, 23.960, -11.593, 27.30,,,,,,,,,,,, 0.99295, -0.02777, -0.00372, -0.11469,
 13:56:20.078,COM3,, -0.0010, -0.0161, 1.0015, -1.3428, -0.4883, 0.1831, -3.109, -0.786, -13.156, -5.847, 23.960, -11.587, 27.30,,,,,,,,,,,, 0.99295, -0.02777, -0.00372, -0.11469,
 13:56:20.078,COM3,, -0.0005, -0.0161, 1.0015, -1.3428, -0.4883, 0.1831, -3.109, -0.786, -13.156, -5.860, 23.953, -11.600, 27.30,,,,,,,,,,,, 0.99295, -0.02777, -0.00372, -0.11469,
 13:56:20.078,COM3,, -0.0005, -0.0176, 1.0015, -1.3428, -0.4883, 0.1831, -3.109, -0.786, -13.156, -5.880, 23.953, -11.613, 27.28,,,,,,,,,,,, 0.99295, -0.02777, -0.00372, -0.11472,
 13:56:20.078,COM3,, -0.0005, -0.0176, 1.0015, -1.3428, -0.4883, 0.1831, -3.109, -0.786, -13.156, -5.867, 23.960, -11.647, 27.28,,,,,,,,,,,, 0.99295, -0.02777, -0.00372, -0.11472,
 13:56:20.078,COM3,, -0.0005, -0.0176, 1.0015, -1.3428, -0.4883, 0.1831, -3.109, -0.786, -13.156, -5.847, 23.953, -11.640, 27.28,,,,,,,,,,,, 0.99295, -0.02777, -0.00372, -0.11472,
 13:56:20.078,COM3,, -0.0005, -0.0176, 1.0015, -1.3428, -0.4883, 0.1831, -3.115, -0.786, -13.162, -5.820, 23.953, -11.647, 27.28,,,,,,,,,,,, 0.99295, -0.02777, -0.00372, -0.11475,
 13:56:20.078,COM3,, -0.0005, -0.0181, 1.0015, -1.3428, -0.4883, 0.2441, -3.115, -0.786, -13.162, -5.800, 23.953, -11.640, 27.27,,,,,,,,,,,, 0.99295, -0.02777, -0.00372, -0.11475,
 13:56:20.079,COM3,, -0.0005, -0.0181, 1.0015, -1.3428, -0.4883, 0.2441, -3.115, -0.786, -13.162, -5.813, 23.953, -11.627, 27.27,,,,,,,,,,,, 0.99295, -0.02777, -0.00372, -0.11475,
 13:56:20.079,COM3,, -0.0005, -0.0181, 1.0015, -1.3428, -0.4883, 0.2441, -3.115, -0.786, -13.162, -5.840, 23.953, -11.613, 27.27,,,,,,,,,,,, 0.99295, -0.02777, -0.00372, -0.11475,
 13:56:20.079,COM3,, 0.0000, -0.0181, 1.0015, -1.3428, -0.4883, 0.2441, -3.115, -0.786, -13.162, -5.847, 23.967, -11.633, 27.27,,,,,,,,,,,, 0.99295, -0.02777, -0.00372, -0.11475,
 13:56:20.079,COM3,, 0.0000, -0.0176, 1.0020, -1.2817, -0.4883, 0.2441, -3.115, -0.786, -13.162, -5.833, 23.987, -11.647, 27.36,,,,,,,,,,,, 0.99295, -0.02777, -0.00372, -0.11475,
 13:56:20.079,COM3,, 0.0000, -0.0176, 1.0020, -1.2817, -0.4883, 0.2441, -3.115, -0.786, -13.162, -5.807, 24.007, -11.640, 27.36,,,,,,,,,,,, 0.99295, -0.02777, -0.00372, -0.11475,
 13:56:20.079,COM3,, 0.0000, -0.0176, 1.0020, -1.2817, -0.4883, 0.2441, -3.115, -0.786, -13.162, -5.787, 24.020, -11.633, 27.36,,,,,,,,,,,, 0.99295, -0.02777, -0.00372, -0.11475,
 13:56:20.079,COM3,, 0.0000, -0.0176, 1.0020, -1.2817, -0.4883, 0.2441, -3.115, -0.786, -13.162, -5.760, 24.020, -11.627, 27.36,,,,,,,,,,,, 0.99295, -0.02777, -0.00372, -0.11475,
 13:56:20.079,COM3,, 0.0000, -0.0171, 1.0010, -1.2817, -0.4883, 0.2441, -3.115, -0.786, -13.162, -5.767, 24.007, -11.607, 27.31,,,,,,,,,,,, 0.99295, -0.02777, -0.00372, -0.11475,
 13:56:20.079,COM3,, 0.0000, -0.0171, 1.0010, -1.2817, -0.4883, 0.2441, -3.115, -0.786, -13.162, -5.767, 23.993, -11.620, 27.31,,,,,,,,,,,, 0.99295, -0.02777, -0.00372, -0.11475,
 13:56:20.079,COM3,, 0.0000, -0.0171, 1.0010, -1.2817, -0.4883, 0.2441, -3.115, -0.786, -13.162, -5.747, 23.980, -11.640, 27.31,,,,,,,,,,,, 0.99295, -0.02777, -0.00372, -0.11475,
 13:56:20.079,COM3,, 0.0000, -0.0171, 1.0010, -1.2817, -0.4883, 0.2441, -3.109, -0.786, -13.162, -5.747, 23.973, -11.673, 27.31,,,,,,,,,,,, 0.99295, -0.02777, -0.00372, -0.11475,
 13:56:20.079,COM3,, 0.0000, -0.0156, 1.0010, -1.3428, -0.4883, 0.2441, -3.115, -0.786, -13.162, -5.753, 23.967, -11.700, 27.33,,,,,,,,,,,, 0.99295, -0.02777, -0.00372, -0.11475,
 13:56:20.079,COM3,, 0.0000, -0.0156, 1.0010, -1.3428, -0.4883, 0.2441, -3.115, -0.786, -13.162, -5.733, 23.967, -11.727, 27.33,,,,,,,,,,,, 0.99295, -0.02777, -0.00372, -0.11475,
 13:56:20.079,COM3,, 0.0000, -0.0156, 1.0010, -1.3428, -0.4883, 0.2441, -3.115, -0.786, -13.162, -5.707, 23.967, -11.747, 27.33,,,,,,,,,,,, 0.99295, -0.02777, -0.00372, -0.11475,
 13:56:20.080,COM3,, 0.0000, -0.0156, 1.0010, -1.3428, -0.4883, 0.2441, -3.115, -0.786, -13.162, -5.673, 23.973, -11.740, 27.33,,,,,,,,,,,, 0.99295, -0.02777, -0.00372, -0.11475,
 13:56:20.080,COM3,, 0.0000, -0.0146, 1.0010, -1.2817, -0.4883, 0.2441, -3.115, -0.786, -13.162, -5.647, 23.987, -11.720, 27.30,,,,,,,,,,,, 0.99295, -0.02777, -0.00372, -0.11475,
 13:56:20.080,COM3,, 0.0000, -0.0146, 1.0010, -1.2817, -0.4883, 0.2441, -3.115, -0.786, -13.162, -5.647, 23.987, -11.680, 27.30,,,,,,,,,,,, 0.99295, -0.02777, -0.00372, -0.11475,
 13:56:20.080,COM3,, 0.0000, -0.0146, 1.0010, -1.2817, -0.4883, 0.2441, -3.115, -0.786, -13.162, -5.667, 23.967, -11.680, 27.30,,,,,,,,,,,, 0.99295, -0.02777, -0.00372, -0.11475,
 13:56:20.080,COM3,, -0.0010, -0.0146, 1.0010, -1.2817, -0.4883, 0.2441, -3.115, -0.786, -13.162, -5.687, 23.953, -11.680, 27.30,,,,,,,,,,,, 0.99295, -0.02777, -0.00372, -0.11475,
 13:56:20.080,COM3,, -0.0010, -0.0142, 1.0020, -1.2817, -0.4883, 0.2441, -3.115, -0.786, -13.162, -5.707, 23.947, -11.687, 27.33,,,,,,,,,,,, 0.99295, -0.02777, -0.00372, -0.11472,
 13:56:20.080,COM3,, -0.0010, -0.0142, 1.0020, -1.2817, -0.4883, 0.2441, -3.109, -0.786, -13.162, -5.713, 23.947, -11.713, 27.33,,,,,,,,,,,, 0.99295, -0.02777, -0.00372, -0.11472,
 13:56:20.080,COM3,, -0.0010, -0.0142, 1.0020, -1.2817, -0.4883, 0.2441, -3.109, -0.786, -13.162, -5.713, 23.967, -11.740, 27.33,,,,,,,,,,,, 0.99295, -0.02777, -0.00372, -0.11472,
 13:56:20.080,COM3,, -0.0010, -0.0142, 1.0020, -1.2817, -0.4883, 0.2441, -3.109, -0.786, -13.156, -5.713, 23.973, -11.753, 27.33,,,,,,,,,,,, 0.99295, -0.02777, -0.00372, -0.11472,
 13:56:20.080,COM3,, -0.0010, -0.0146, 1.0015, -1.2817, -0.4883, 0.1831, -3.109, -0.786, -13.156, -5.707, 23.973, -11.740, 27.30,,,,,,,,,,,, 0.99295, -0.02777, -0.00372, -0.11472,
 13:56:20.080,COM3,, -0.0010, -0.0146, 1.0015, -1.2817, -0.4883, 0.1831, -3.109, -0.786, -13.156, -5.700, 23.980, -11.720, 27.30,,,,,,,,,,,, 0.99295, -0.02777, -0.00372, -0.11472,
 13:56:20.080,COM3,, -0.0010, -0.0146, 1.0015, -1.2817, -0.4883, 0.1831, -3.109, -0.786, -13.156, -5.687, 23.980, -11.680, 27.30,,,,,,,,,,,, 0.99295, -0.02777, -0.00372, -0.11472,
 13:56:20.080,COM3,, -0.0010, -0.0146, 1.0015, -1.2817, -0.4883, 0.1831, -3.109, -0.786, -13.156, -5.687, 23.993, -11.667, 27.30,,,,,,,,,,,, 0.99295, -0.02774, -0.00372, -0.11472,
 13:56:20.080,COM3,, 0.0000, -0.0146, 1.0015, -1.2817, -0.4883, 0.1831, -3.109, -0.786, -13.156, -5.693, 24.013, -11.667, 27.30,,,,,,,,,,,, 0.99295, -0.02774, -0.00372, -0.11472,
 13:56:20.080,COM3,, 0.0000, -0.0166, 1.0015, -1.3428, -0.4883, 0.2441, -3.109, -0.786, -13.156, -5.707, 24.020, -11.660, 27.27,,,,,,,,,,,, 0.99295, -0.02774, -0.00372, -0.11472,
 13:56:20.081,COM3,, 0.0000, -0.0166, 1.0015, -1.3428, -0.4883, 0.2441, -3.109, -0.786, -13.156, -5.713, 24.020, -11.660, 27.27,,,,,,,,,,,, 0.99295, -0.02774, -0.00372, -0.11472,
 13:56:20.081,COM3,, 0.0000, -0.0166, 1.0015, -1.3428, -0.4883, 0.2441, -3.109, -0.786, -13.156, -5.713, 24.020, -11.653, 27.27,,,,,,,,,,,, 0.99295, -0.02774, -0.00372, -0.11472,
 13:56:20.081,COM3,, -0.0010, -0.0166, 1.0015, -1.3428, -0.4883, 0.2441, -3.109, -0.786, -13.156, -5.700, 24.013, -11.640, 27.27,,,,,,,,,,,, 0.99295, -0.02774, -0.00372, -0.11472,
 13:56:20.081,COM3,, -0.0010, -0.0171, 1.0015, -1.3428, -0.4883, 0.1831, -3.109, -0.786, -13.156, -5.660, 24.007, -11.627, 27.28,,,,,,,,,,,, 0.99295, -0.02774, -0.00372, -0.11472,
 13:56:20.081,COM3,, -0.0010, -0.0171, 1.0015, -1.3428, -0.4883, 0.1831, -3.109, -0.786, -13.156, -5.633, 23.993, -11.620, 27.28,,,,,,,,,,,, 0.99295, -0.02777, -0.00372, -0.11472,
 13:56:20.081,COM3,, -0.0010, -0.0171, 1.0015, -1.3428, -0.4883, 0.1831, -3.109, -0.786, -13.156, -5.620, 23.980, -11.627, 27.28,,,,,,,,,,,, 0.99295, -0.02777, -0.00372, -0.11469,
 13:56:20.081,COM3,, 0.0000, -0.0171, 1.0015, -1.3428, -0.4883, 0.1831, -3.109, -0.786, -13.156, -5.627, 23.960, -11.627, 27.28,,,,,,,,,,,, 0.99295, -0.02777, -0.00372, -0.11469,
 13:56:20.081,COM3,, 0.0000, -0.0181, 1.0010, -1.2817, -0.4883, 0.1831, -3.109, -0.786, -13.156, -5.640, 23.933, -11.640, 27.31,,,,,,,,,,,, 0.99295, -0.02777, -0.00372, -0.11469,
 13:56:20.081,COM3,, 0.0000, -0.0181, 1.0010, -1.2817, -0.4883, 0.1831, -3.109, -0.786, -13.156, -5.660, 23.920, -11.653, 27.31,,,,,,,,,,,, 0.99295, -0.02774, -0.00372, -0.11469,
 13:56:20.081,COM3,, 0.0000, -0.0181, 1.0010, -1.2817, -0.4883, 0.1831, -3.109, -0.786, -13.156, -5.680, 23.907, -11.660, 27.31,,,,,,,,,,,, 0.99295, -0.02774, -0.00372, -0.11469,
 13:56:20.081,COM3,, 0.0005, -0.0181, 1.0010, -1.2817, -0.4883, 0.1831, -3.109, -0.786, -13.156, -5.667, 23.880, -11.667, 27.31,,,,,,,,,,,, 0.99295, -0.02774, -0.00372, -0.11469,
 13:56:20.081,COM3,, 0.0005, -0.0181, 1.0015, -1.2817, -0.4883, 0.2441, -3.109, -0.786, -13.156, -5.667, 23.873, -11.660, 27.33,,,,,,,,,,,, 0.99295, -0.02774, -0.00372, -0.11469,
 13:56:20.081,COM3,, 0.0005, -0.0181, 1.0015, -1.2817, -0.4883, 0.2441, -3.109, -0.786, -13.156, -5.660, 23.873, -11.620, 27.33,,,,,,,,,,,, 0.99295, -0.02774, -0.00372, -0.11469,
 13:56:20.081,COM3,, 0.0005, -0.0181, 1.0015, -1.2817, -0.4883, 0.2441, -3.109, -0.786, -13.151, -5.640, 23.873, -11.613, 27.33,,,,,,,,,,,, 0.99295, -0.02774, -0.00372, -0.11469,
 13:56:20.081,COM3,, 0.0000, -0.0181, 1.0015, -1.2817, -0.4883, 0.2441, -3.109, -0.786, -13.151, -5.627, 23.887, -11.613, 27.33,,,,,,,,,,,, 0.99295, -0.02774, -0.00372, -0.11469,
 13:56:20.081,COM3,, 0.0000, -0.0171, 1.0015, -1.2817, -0.4883, 0.2441, -3.109, -0.786, -13.151, -5.627, 23.907, -11.620, 27.31,,,,,,,,,,,, 0.99295, -0.02774, -0.00372, -0.11465,
 13:56:20.081,COM3,, 0.0000, -0.0171, 1.0015, -1.2817, -0.4883, 0.2441, -3.109, -0.786, -13.151, -5.640, 23.907, -11.653, 27.31,,,,,,,,,,,, 0.99295, -0.02774, -0.00372, -0.11465,
 13:56:20.081,COM3,, 0.0000, -0.0171, 1.0015, -1.2817, -0.4883, 0.2441, -3.109, -0.786, -13.151, -5.647, 23.920, -11.647, 27.31,,,,,,,,,,,, 0.99295, -0.02774, -0.00372, -0.11465,
 13:56:20.081,COM3,, -0.0005, -0.0171, 1.0015, -1.2817, -0.4883, 0.2441, -3.109, -0.786, -13.151, -5.640, 23.933, -11.660, 27.31,,,,,,,,,,,, 0.99295, -0.02774, -0.00372, -0.11465,
 13:56:20.081,COM3,, -0.0005, -0.0151, 1.0015, -1.2817, -0.4883, 0.2441, -3.109, -0.786, -13.151, -5.627, 23.947, -11.653, 27.33,,,,,,,,,,,, 0.99295, -0.02774, -0.00372, -0.11465,
 13:56:20.081,COM3,, -0.0005, -0.0151, 1.0015, -1.2817, -0.4883, 0.2441, -3.109, -0.786, -13.151, -5.607, 23.940, -11.633, 27.33,,,,,,,,,,,, 0.99295, -0.02774, -0.00372, -0.11462,
 13:56:20.081,COM3,, -0.0005, -0.0151, 1.0015, -1.2817, -0.4883, 0.2441, -3.109, -0.786, -13.145, -5.587, 23.947, -11.633, 27.33,,,,,,,,,,,, 0.99298, -0.02774, -0.00372, -0.11462,
 13:56:20.083,COM3,, -0.0015, -0.0151, 1.0015, -1.2817, -0.4883, 0.2441, -3.109, -0.786, -13.145, -5.580, 23.953, -11.640, 27.33,,,,,,,,,,,, 0.99298, -0.02774, -0.00372, -0.11462,
 13:56:20.083,COM3,, -0.0015, -0.0146, 1.0015, -1.2817, -0.5493, 0.1831, -3.109, -0.786, -13.145, -5.587, 23.953, -11.660, 27.31,,,,,,,,,,,, 0.99298, -0.02774, -0.00372, -0.11462,
 13:56:20.083,COM3,, -0.0015, -0.0146, 1.0015, -1.2817, -0.5493, 0.1831, -3.109, -0.786, -13.145, -5.580, 23.953, -11.680, 27.31,,,,,,,,,,,, 0.99298, -0.02774, -0.00372, -0.11459,
 13:56:20.083,COM3,, -0.0015, -0.0146, 1.0015, -1.2817, -0.5493, 0.1831, -3.109, -0.786, -13.145, -5.587, 23.953, -11.707, 27.31,,,,,,,,,,,, 0.99298, -0.02774, -0.00372, -0.11459,
 13:56:20.083,COM3,, -0.0010, -0.0146, 1.0015, -1.2817, -0.5493, 0.1831, -3.109, -0.786, -13.145, -5.613, 23.947, -11.720, 27.31,,,,,,,,,,,, 0.99298, -0.02774, -0.00372, -0.11459,
 13:56:20.083,COM3,, -0.0010, -0.0142, 1.0010, -1.4038, -0.4883, 0.2441, -3.109, -0.786, -13.145, -5.627, 23.940, -11.727, 27.27,,,,,,,,,,,, 0.99298, -0.02774, -0.00372, -0.11459,
 13:56:20.083,COM3,, -0.0010, -0.0142, 1.0010, -1.4038, -0.4883, 0.2441, -3.109, -0.786, -13.140, -5.647, 23.933, -11.720, 27.27,,,,,,,,,,,, 0.99298, -0.02774, -0.00372, -0.11459,
 13:56:20.083,COM3,, -0.0010, -0.0142, 1.0010, -1.4038, -0.4883, 0.2441, -3.109, -0.786, -13.140, -5.687, 23.940, -11.700, 27.27,,,,,,,,,,,, 0.99298, -0.02774, -0.00372, -0.11459,
 13:56:20.083,COM3,, 0.0000, -0.0142, 1.0010, -1.4038, -0.4883, 0.2441, -3.109, -0.786, -13.140, -5.707, 23.947, -11.687, 27.27,,,,,,,,,,,, 0.99298, -0.02774, -0.00372, -0.11456,
 13:56:20.083,COM3,, 0.0000, -0.0146, 1.0010, -1.3428, -0.4883, 0.1221, -3.109, -0.786, -13.140, -5.727, 23.953, -11.673, 27.30,,,,,,,,,,,, 0.99298, -0.02774, -0.00372, -0.11459,
 13:56:20.083,COM3,, 0.0000, -0.0146, 1.0010, -1.3428, -0.4883, 0.1221, -3.109, -0.786, -13.145, -5.767, 23.967, -11.673, 27.30,,,,,,,,,,,, 0.99298, -0.02774, -0.00372, -0.11459,
 13:56:20.083,COM3,, 0.0000, -0.0146, 1.0010, -1.3428, -0.4883, 0.1221, -3.109, -0.786, -13.145, -5.780, 23.967, -11.693, 27.30,,,,,,,,,,,, 0.99298, -0.02774, -0.00372, -0.11459,
 13:56:20.083,COM3,, 0.0000, -0.0146, 1.0010, -1.3428, -0.4883, 0.1221, -3.109, -0.786, -13.145, -5.807, 23.967, -11.707, 27.30,,,,,,,,,,,, 0.99298, -0.02774, -0.00372, -0.11459,
 13:56:20.083,COM3,, 0.0000, -0.0161, 1.0015, -1.2817, -0.4883, 0.1831, -3.109, -0.786, -13.145, -5.827, 23.960, -11.727, 27.33,,,,,,,,,,,, 0.99298, -0.02774, -0.00372, -0.11462,
 13:56:20.084,COM3,, 0.0000, -0.0161, 1.0015, -1.2817, -0.4883, 0.1831, -3.109, -0.786, -13.145, -5.833, 23.953, -11.727, 27.33,,,,,,,,,,,, 0.99298, -0.02774, -0.00372, -0.11462,
 13:56:20.084,COM3,, 0.0000, -0.0161, 1.0015, -1.2817, -0.4883, 0.1831, -3.109, -0.786, -13.151, -5.840, 23.953, -11.727, 27.33,,,,,,,,,,,, 0.99295, -0.02774, -0.00372, -0.11462,
 13:56:20.084,COM3,, 0.0000, -0.0161, 1.0015, -1.2817, -0.4883, 0.1831, -3.109, -0.786, -13.151, -5.827, 23.953, -11.720, 27.33,,,,,,,,,,,, 0.99295, -0.02774, -0.00372, -0.11462,
 13:56:20.084,COM3,, 0.0000, -0.0166, 1.0020, -1.3428, -0.4883, 0.2441, -3.109, -0.786, -13.151, -5.813, 23.967, -11.713, 27.33,,,,,,,,,,,, 0.99295, -0.02774, -0.00372, -0.11465,
 13:56:20.084,COM3,, 0.0000, -0.0166, 1.0020, -1.3428, -0.4883, 0.2441, -3.109, -0.786, -13.151, -5.787, 23.987, -11.687, 27.33,,,,,,,,,,,, 0.99295, -0.02774, -0.00372, -0.11465,
 13:56:20.084,COM3,, 0.0000, -0.0166, 1.0020, -1.3428, -0.4883, 0.2441, -3.109, -0.786, -13.151, -5.747, 23.993, -11.660, 27.33,,,,,,,,,,,, 0.99295, -0.02774, -0.00372, -0.11465,
 13:56:20.084,COM3,, 0.0000, -0.0166, 1.0020, -1.3428, -0.4883, 0.2441, -3.109, -0.786, -13.151, -5.707, 23.993, -11.647, 27.33,,,,,,,,,,,, 0.99295, -0.02774, -0.00372, -0.11465,
 13:56:20.084,COM3,, 0.0000, -0.0176, 1.0015, -1.2817, -0.4883, 0.2441, -3.109, -0.786, -13.151, -5.667, 23.993, -11.633, 27.33,,,,,,,,,,,, 0.99295, -0.02774, -0.00372, -0.11462,
 13:56:20.084,COM3,, 0.0000, -0.0176, 1.0015, -1.2817, -0.4883, 0.2441, -3.109, -0.786, -13.151, -5.633, 23.987, -11.627, 27.33,,,,,,,,,,,, 0.99295, -0.02774, -0.00372, -0.11462,
 13:56:20.084,COM3,, 0.0000, -0.0176, 1.0015, -1.2817, -0.4883, 0.2441, -3.109, -0.786, -13.145, -5.620, 23.980, -11.627, 27.33,,,,,,,,,,,, 0.99298, -0.02774, -0.00372, -0.11462,
 13:56:20.084,COM3,, -0.0005, -0.0176, 1.0015, -1.2817, -0.4883, 0.2441, -3.109, -0.786, -13.145, -5.620, 23.973, -11.613, 27.33,,,,,,,,,,,, 0.99298, -0.02774, -0.00372, -0.11462,
 13:56:20.084,COM3,, -0.0005, -0.0171, 1.0010, -1.3428, -0.4883, 0.2441, -3.109, -0.786, -13.145, -5.640, 23.953, -11.607, 27.27,,,,,,,,,,,, 0.99298, -0.02774, -0.00372, -0.11462,
 13:56:20.084,COM3,, -0.0005, -0.0171, 1.0010, -1.3428, -0.4883, 0.2441, -3.109, -0.786, -13.145, -5.647, 23.940, -11.627, 27.27,,,,,,,,,,,, 0.99298, -0.02774, -0.00372, -0.11459,
 13:56:20.084,COM3,, -0.0005, -0.0171, 1.0010, -1.3428, -0.4883, 0.2441, -3.109, -0.786, -13.145, -5.680, 23.933, -11.640, 27.27,,,,,,,,,,,, 0.99298, -0.02774, -0.00372, -0.11459,
 13:56:20.084,COM3,, -0.0005, -0.0171, 1.0010, -1.3428, -0.4883, 0.2441, -3.109, -0.786, -13.145, -5.693, 23.940, -11.627, 27.27,,,,,,,,,,,, 0.99298, -0.02774, -0.00372, -0.11459,
 13:56:20.084,COM3,, -0.0005, -0.0166, 1.0010, -1.2817, -0.5493, 0.2441, -3.109, -0.786, -13.145, -5.693, 23.947, -11.627, 27.30,,,,,,,,,,,, 0.99298, -0.02774, -0.00372, -0.11459,
 13:56:20.085,COM3,, -0.0005, -0.0166, 1.0010, -1.2817, -0.5493, 0.2441, -3.109, -0.786, -13.145, -5.693, 23.953, -11.607, 27.30,,,,,,,,,,,, 0.99298, -0.02774, -0.00372, -0.11459,
 13:56:20.085,COM3,, -0.0005, -0.0166, 1.0010, -1.2817, -0.5493, 0.2441, -3.109, -0.786, -13.145, -5.667, 23.960, -11.600, 27.30,,,,,,,,,,,, 0.99298, -0.02774, -0.00372, -0.11459,
 13:56:20.085,COM3,, 0.0000, -0.0166, 1.0010, -1.2817, -0.5493, 0.2441, -3.109, -0.786, -13.145, -5.627, 23.960, -11.613, 27.30,,,,,,,,,,,, 0.99298, -0.02774, -0.00372, -0.11459,
 13:56:20.085,COM3,, 0.0000, -0.0156, 1.0015, -1.2817, -0.4883, 0.1831, -3.109, -0.786, -13.140, -5.620, 23.960, -11.607, 27.30,,,,,,,,,,,, 0.99298, -0.02774, -0.00372, -0.11459,
 13:56:20.085,COM3,, 0.0000, -0.0156, 1.0015, -1.2817, -0.4883, 0.1831, -3.109, -0.786, -13.140, -5.620, 23.953, -11.607, 27.30,,,,,,,,,,,, 0.99298, -0.02774, -0.00372, -0.11456,
 13:56:20.085,COM3,, 0.0000, -0.0156, 1.0015, -1.2817, -0.4883, 0.1831, -3.109, -0.786, -13.140, -5.640, 23.960, -11.593, 27.30,,,,,,,,,,,, 0.99298, -0.02774, -0.00372, -0.11456,
 13:56:20.085,COM3,, 0.0005, -0.0156, 1.0015, -1.2817, -0.4883, 0.1831, -3.109, -0.786, -13.140, -5.667, 23.967, -11.580, 27.30,,,,,,,,,,,, 0.99298, -0.02774, -0.00372, -0.11456,
 13:56:20.085,COM3,, 0.0005, -0.0156, 1.0015, -1.3428, -0.4883, 0.1831, -3.109, -0.786, -13.140, -5.687, 23.967, -11.573, 27.31,,,,,,,,,,,, 0.99298, -0.02774, -0.00372, -0.11456,
 13:56:20.085,COM3,, 0.0005, -0.0156, 1.0015, -1.3428, -0.4883, 0.1831, -3.109, -0.786, -13.140, -5.693, 23.987, -11.580, 27.31,,,,,,,,,,,, 0.99298, -0.02774, -0.00372, -0.11456,
 13:56:20.085,COM3,, 0.0005, -0.0156, 1.0015, -1.3428, -0.4883, 0.1831, -3.109, -0.786, -13.140, -5.693, 23.987, -11.580, 27.31,,,,,,,,,,,, 0.99298, -0.02774, -0.00372, -0.11456,
 13:56:20.085,COM3,, 0.0005, -0.0156, 1.0015, -1.3428, -0.4883, 0.1831, -3.109, -0.786, -13.140, -5.720, 23.987, -11.580, 27.31,,,,,,,,,,,, 0.99298, -0.02774, -0.00372, -0.11456,
 13:56:20.085,COM3,, 0.0005, -0.0156, 1.0015, -1.3428, -0.4883, 0.2441, -3.109, -0.786, -13.140, -5.767, 23.980, -11.587, 27.30,,,,,,,,,,,, 0.99298, -0.02774, -0.00372, -0.11456,
 13:56:20.085,COM3,, 0.0005, -0.0156, 1.0015, -1.3428, -0.4883, 0.2441, -3.109, -0.786, -13.140, -5.787, 23.960, -11.567, 27.30,,,,,,,,,,,, 0.99298, -0.02774, -0.00372, -0.11456,
 13:56:20.085,COM3,, 0.0005, -0.0156, 1.0015, -1.3428, -0.4883, 0.2441, -3.109, -0.786, -13.140, -5.793, 23.967, -11.567, 27.30,,,,,,,,,,,, 0.99298, -0.02774, -0.00372, -0.11456,
 13:56:20.086,COM3,, 0.0000, -0.0156, 1.0015, -1.3428, -0.4883, 0.2441, -3.109, -0.786, -13.140, -5.767, 23.980, -11.587, 27.30,,,,,,,,,,,, 0.99298, -0.02774, -0.00372, -0.11459,
 13:56:20.086,COM3,, 0.0000, -0.0161, 1.0015, -1.3428, -0.4883, 0.3052, -3.109, -0.786, -13.140, -5.727, 23.993, -11.593, 27.30,,,,,,,,,,,, 0.99298, -0.02774, -0.00372, -0.11456,
 13:56:20.086,COM3,, 0.0000, -0.0161, 1.0015, -1.3428, -0.4883, 0.3052, -3.109, -0.786, -13.140, -5.707, 24.007, -11.620, 27.30,,,,,,,,,,,, 0.99298, -0.02774, -0.00372, -0.11456,
 13:56:20.086,COM3,, 0.0000, -0.0161, 1.0015, -1.3428, -0.4883, 0.3052, -3.109, -0.786, -13.140, -5.673, 23.993, -11.640, 27.30,,,,,,,,,,,, 0.99298, -0.02774, -0.00372, -0.11456,
 13:56:20.086,COM3,, 0.0000, -0.0161, 1.0015, -1.3428, -0.4883, 0.3052, -3.109, -0.786, -13.140, -5.653, 23.987, -11.647, 27.30,,,,,,,,,,,, 0.99298, -0.02774, -0.00372, -0.11456,
 13:56:20.086,COM3,, 0.0000, -0.0156, 1.0015, -1.3428, -0.4883, 0.2441, -3.109, -0.786, -13.140, -5.653, 23.980, -11.667, 27.27,,,,,,,,,,,, 0.99298, -0.02774, -0.00372, -0.11456,
 13:56:20.086,COM3,, 0.0000, -0.0156, 1.0015, -1.3428, -0.4883, 0.2441, -3.109, -0.786, -13.140, -5.647, 23.973, -11.680, 27.27,,,,,,,,,,,, 0.99298, -0.02777, -0.00372, -0.11453,
 13:56:20.086,COM3,, 0.0000, -0.0156, 1.0015, -1.3428, -0.4883, 0.2441, -3.109, -0.786, -13.140, -5.660, 23.973, -11.700, 27.27,,,,,,,,,,,, 0.99298, -0.02777, -0.00372, -0.11453,
 13:56:20.086,COM3,, -0.0010, -0.0156, 1.0015, -1.3428, -0.4883, 0.2441, -3.109, -0.786, -13.134, -5.667, 23.960, -11.720, 27.27,,,,,,,,,,,, 0.99298, -0.02777, -0.00372, -0.11453,
 13:56:20.086,COM3,, -0.0010, -0.0161, 1.0015, -1.3428, -0.4883, 0.1831, -3.109, -0.786, -13.134, -5.660, 23.960, -11.713, 27.31,,,,,,,,,,,, 0.99298, -0.02777, -0.00372, -0.11453,
 13:56:20.086,COM3,, -0.0010, -0.0161, 1.0015, -1.3428, -0.4883, 0.1831, -3.109, -0.786, -13.134, -5.647, 23.947, -11.700, 27.31,,,,,,,,,,,, 0.99298, -0.02777, -0.00372, -0.11453,
 13:56:20.086,COM3,, -0.0010, -0.0161, 1.0015, -1.3428, -0.4883, 0.1831, -3.109, -0.786, -13.134, -5.613, 23.933, -11.680, 27.31,,,,,,,,,,,, 0.99298, -0.02777, -0.00372, -0.11453,
 13:56:20.102,COM3,, -0.0005, -0.0161, 1.0015, -1.3428, -0.4883, 0.1831, -3.109, -0.786, -13.134, -5.580, 23.920, -11.673, 27.31,,,,,,,,,,,, 0.99298, -0.02777, -0.00372, -0.11453,
 13:56:20.102,COM3,, -0.0005, -0.0166, 1.0020, -1.3428, -0.4883, 0.2441, -3.109, -0.786, -13.134, -5.553, 23.913, -11.633, 27.31,,,,,,,,,,,, 0.99298, -0.02777, -0.00372, -0.11450,
 13:56:20.102,COM3,, -0.0005, -0.0166, 1.0020, -1.3428, -0.4883, 0.2441, -3.109, -0.786, -13.134, -5.533, 23.907, -11.620, 27.31,,,,,,,,,,,, 0.99298, -0.02777, -0.00372, -0.11450,
 13:56:20.102,COM3,, -0.0005, -0.0166, 1.0020, -1.3428, -0.4883, 0.2441, -3.109, -0.786, -13.129, -5.507, 23.900, -11.600, 27.31,,,,,,,,,,,, 0.99298, -0.02777, -0.00372, -0.11447,
 13:56:20.102,COM3,, -0.0005, -0.0166, 1.0020, -1.3428, -0.4883, 0.2441, -3.109, -0.786, -13.129, -5.500, 23.893, -11.587, 27.31,,,,,,,,,,,, 0.99298, -0.02777, -0.00372, -0.11447,
 13:56:20.102,COM3,, -0.0005, -0.0171, 1.0020, -1.3428, -0.4883, 0.2441, -3.109, -0.786, -13.129, -5.473, 23.887, -11.580, 27.30,,,,,,,,,,,, 0.99298, -0.02777, -0.00372, -0.11447,
 13:56:20.118,COM3,, -0.0005, -0.0171, 1.0020, -1.3428, -0.4883, 0.2441, -3.109, -0.786, -13.129, -5.453, 23.893, -11.567, 27.30,,,,,,,,,,,, 0.99298, -0.02777, -0.00372, -0.11444,
 13:56:20.118,COM3,, -0.0005, -0.0171, 1.0020, -1.3428, -0.4883, 0.2441, -3.115, -0.786, -13.123, -5.447, 23.907, -11.567, 27.30,,,,,,,,,,,, 0.99298, -0.02777, -0.00372, -0.11444,
 13:56:20.118,COM3,, 0.0000, -0.0171, 1.0020, -1.3428, -0.4883, 0.2441, -3.115, -0.786, -13.123, -5.447, 23.927, -11.580, 27.30,,,,,,,,,,,, 0.99298, -0.02777, -0.00372, -0.11441,
 13:56:20.134,COM3,, 0.0000, -0.0166, 1.0020, -1.2817, -0.4883, 0.2441, -3.115, -0.786, -13.123, -5.460, 23.953, -11.613, 27.30,,,,,,,,,,,, 0.99298, -0.02777, -0.00372, -0.11438,
 13:56:20.134,COM3,, 0.0000, -0.0166, 1.0020, -1.2817, -0.4883, 0.2441, -3.115, -0.786, -13.118, -5.473, 23.987, -11.633, 27.30,,,,,,,,,,,, 0.99298, -0.02777, -0.00372, -0.11438,
 13:56:20.134,COM3,, 0.0000, -0.0166, 1.0020, -1.2817, -0.4883, 0.2441, -3.109, -0.786, -13.118, -5.493, 24.000, -11.653, 27.30,,,,,,,,,,,, 0.99298, -0.02777, -0.00372, -0.11438,
 13:56:20.134,COM3,, 0.0005, -0.0166, 1.0020, -1.2817, -0.4883, 0.2441, -3.109, -0.786, -13.118, -5.507, 24.000, -11.667, 27.30,,,,,,,,,,,, 0.99301, -0.02777, -0.00372, -0.11435,
 13:56:20.150,COM3,, 0.0005, -0.0161, 1.0010, -1.2817, -0.4883, 0.2441, -3.109, -0.786, -13.112, -5.533, 23.993, -11.673, 27.31,,,,,,,,,,,, 0.99301, -0.02777, -0.00372, -0.11435,
 13:56:20.150,COM3,, 0.0005, -0.0161, 1.0010, -1.2817, -0.4883, 0.2441, -3.109, -0.786, -13.112, -5.540, 23.980, -11.700, 27.31,,,,,,,,,,,, 0.99301, -0.02777, -0.00372, -0.11432,
 13:56:20.150,COM3,, 0.0005, -0.0161, 1.0010, -1.2817, -0.4883, 0.2441, -3.109, -0.786, -13.112, -5.553, 23.953, -11.707, 27.31,,,,,,,,,,,, 0.99301, -0.02777, -0.00372, -0.11432,
 13:56:20.166,COM3,, 0.0000, -0.0161, 1.0010, -1.2817, -0.4883, 0.2441, -3.109, -0.786, -13.112, -5.573, 23.933, -11.707, 27.31,,,,,,,,,,,, 0.99301, -0.02777, -0.00372, -0.11432,
 13:56:20.166,COM3,, 0.0000, -0.0161, 1.0015, -1.3428, -0.4883, 0.2441, -3.109, -0.786, -13.112, -5.580, 23.920, -11.700, 27.30,,,,,,,,,,,, 0.99301, -0.02777, -0.00372, -0.11429,
 13:56:20.166,COM3,, 0.0000, -0.0161, 1.0015, -1.3428, -0.4883, 0.2441, -3.109, -0.786, -13.107, -5.587, 23.907, -11.700, 27.30,,,,,,,,,,,, 0.99301, -0.02777, -0.00372, -0.11429,
 13:56:20.181,COM3,, 0.0000, -0.0161, 1.0015, -1.3428, -0.4883, 0.2441, -3.109, -0.786, -13.107, -5.607, 23.907, -11.707, 27.30,,,,,,,,,,,, 0.99301, -0.02777, -0.00372, -0.11429,
 13:56:20.181,COM3,, -0.0005, -0.0161, 1.0015, -1.3428, -0.4883, 0.2441, -3.109, -0.786, -13.107, -5.620, 23.913, -11.713, 27.30,,,,,,,,,,,, 0.99301, -0.02777, -0.00372, -0.11429,
 13:56:20.181,COM3,, -0.0005, -0.0146, 1.0015, -1.3428, -0.4883, 0.2441, -3.115, -0.786, -13.107, -5.607, 23.913, -11.720, 27.31,,,,,,,,,,,, 0.99301, -0.02777, -0.00372, -0.11429,
 13:56:20.197,COM3,, -0.0005, -0.0146, 1.0015, -1.3428, -0.4883, 0.2441, -3.115, -0.786, -13.107, -5.627, 23.927, -11.720, 27.31,,,,,,,,,,,, 0.99301, -0.02777, -0.00372, -0.11426,
 13:56:20.197,COM3,, -0.0005, -0.0146, 1.0015, -1.3428, -0.4883, 0.2441, -3.115, -0.786, -13.107, -5.627, 23.927, -11.673, 27.31,,,,,,,,,,,, 0.99301, -0.02777, -0.00372, -0.11426,
 13:56:20.197,COM3,, -0.0010, -0.0146, 1.0015, -1.3428, -0.4883, 0.2441, -3.115, -0.786, -13.107, -5.627, 23.933, -11.633, 27.31,,,,,,,,,,,, 0.99301, -0.02777, -0.00372, -0.11426,
 13:56:20.213,COM3,, -0.0010, -0.0146, 1.0015, -1.3428, -0.4883, 0.2441, -3.115, -0.786, -13.107, -5.640, 23.947, -11.587, 27.31,,,,,,,,,,,, 0.99301, -0.02777, -0.00372, -0.11426,
 13:56:20.213,COM3,, -0.0010, -0.0146, 1.0015, -1.3428, -0.4883, 0.2441, -3.115, -0.786, -13.107, -5.627, 23.953, -11.567, 27.31,,,,,,,,,,,, 0.99301, -0.02777, -0.00372, -0.11426,
 13:56:20.213,COM3,, -0.0010, -0.0146, 1.0015, -1.3428, -0.4883, 0.2441, -3.115, -0.786, -13.101, -5.627, 23.973, -11.567, 27.31,,,,,,,,,,,, 0.99301, -0.02777, -0.00372, -0.11426,
 13:56:20.229,COM3,, -0.0015, -0.0146, 1.0015, -1.3428, -0.4883, 0.2441, -3.115, -0.786, -13.101, -5.647, 23.980, -11.560, 27.31,,,,,,,,,,,, 0.99301, -0.02777, -0.00372, -0.11423,
 13:56:20.229,COM3,, -0.0015, -0.0156, 1.0015, -1.2817, -0.4883, 0.1831, -3.115, -0.786, -13.101, -5.653, 23.987, -11.573, 27.30,,,,,,,,,,,, 0.99301, -0.02777, -0.00372, -0.11423,
 13:56:20.229,COM3,, -0.0015, -0.0156, 1.0015, -1.2817, -0.4883, 0.1831, -3.115, -0.786, -13.101, -5.653, 23.987, -11.573, 27.30,,,,,,,,,,,, 0.99301, -0.02777, -0.00372, -0.11423,
 13:56:20.245,COM3,, -0.0015, -0.0156, 1.0015, -1.2817, -0.4883, 0.1831, -3.109, -0.786, -13.101, -5.653, 23.993, -11.580, 27.30,,,,,,,,,,,, 0.99301, -0.02777, -0.00372, -0.11423,
 13:56:20.245,COM3,, 0.0000, -0.0156, 1.0015, -1.2817, -0.4883, 0.1831, -3.109, -0.786, -13.101, -5.627, 23.987, -11.593, 27.30,,,,,,,,,,,, 0.99301, -0.02777, -0.00372, -0.11423,
 13:56:20.245,COM3,, 0.0000, -0.0171, 1.0015, -1.3428, -0.4883, 0.1831, -3.109, -0.786, -13.101, -5.627, 23.987, -11.613, 27.33,,,,,,,,,,,, 0.99301, -0.02777, -0.00372, -0.11423,
 13:56:20.245,COM3,, 0.0000, -0.0171, 1.0015, -1.3428, -0.4883, 0.1831, -3.109, -0.786, -13.101, -5.620, 23.993, -11.613, 27.33,,,,,,,,,,,, 0.99301, -0.02777, -0.00372, -0.11423,
 13:56:20.261,COM3,, 0.0000, -0.0171, 1.0015, -1.3428, -0.4883, 0.1831, -3.109, -0.786, -13.101, -5.627, 24.000, -11.620, 27.33,,,,,,,,,,,, 0.99301, -0.02777, -0.00372, -0.11423,
 13:56:20.261,COM3,, 0.0000, -0.0171, 1.0015, -1.3428, -0.4883, 0.1831, -3.115, -0.786, -13.101, -5.627, 24.013, -11.627, 27.33,,,,,,,,,,,, 0.99301, -0.02777, -0.00372, -0.11423,
 13:56:20.261,COM3,, 0.0000, -0.0171, 1.0015, -1.2817, -0.4883, 0.1831, -3.109, -0.786, -13.101, -5.607, 24.020, -11.613, 27.30,,,,,,,,,,,, 0.99301, -0.02777, -0.00372, -0.11423,
 13:56:20.278,COM3,, 0.0000, -0.0171, 1.0015, -1.2817, -0.4883, 0.1831, -3.109, -0.786, -13.101, -5.607, 24.020, -11.607, 27.30,,,,,,,,,,,, 0.99301, -0.02777, -0.00372, -0.11420,
 13:56:20.278,COM3,, 0.0000, -0.0171, 1.0015, -1.2817, -0.4883, 0.1831, -3.109, -0.786, -13.101, -5.607, 24.027, -11.593, 27.30,,,,,,,,,,,, 0.99301, -0.02777, -0.00372, -0.11420,
 13:56:20.278,COM3,, 0.0000, -0.0171, 1.0015, -1.2817, -0.4883, 0.1831, -3.109, -0.786, -13.096, -5.593, 24.027, -11.587, 27.30,,,,,,,,,,,, 0.99301, -0.02777, -0.00372, -0.11420,
 13:56:20.278,COM3,, 0.0000, -0.0171, 1.0015, -1.2817, -0.4883, 0.2441, -3.109, -0.786, -13.096, -5.600, 24.020, -11.593, 27.28,,,,,,,,,,,, 0.99301, -0.02777, -0.00372, -0.11420,
 13:56:20.293,COM3,, 0.0000, -0.0171, 1.0015, -1.2817, -0.4883, 0.2441, -3.109, -0.786, -13.096, -5.580, 24.013, -11.580, 27.28,,,,,,,,,,,, 0.99301, -0.02777, -0.00372, -0.11417,
 13:56:20.293,COM3,, 0.0000, -0.0171, 1.0015, -1.2817, -0.4883, 0.2441, -3.109, -0.786, -13.096, -5.573, 24.013, -11.560, 27.28,,,,,,,,,,,, 0.99301, -0.02777, -0.00372, -0.11417,
 13:56:20.293,COM3,, 0.0000, -0.0171, 1.0015, -1.2817, -0.4883, 0.2441, -3.109, -0.786, -13.096, -5.580, 24.013, -11.527, 27.28,,,,,,,,,,,, 0.99301, -0.02777, -0.00372, -0.11417,
 13:56:20.310,COM3,, 0.0000, -0.0166, 1.0015, -1.2817, -0.4883, 0.2441, -3.109, -0.786, -13.090, -5.580, 24.013, -11.513, 27.30,,,,,,,,,,,, 0.99301, -0.02774, -0.00372, -0.11417,
 13:56:20.310,COM3,, 0.0000, -0.0166, 1.0015, -1.2817, -0.4883, 0.2441, -3.109, -0.786, -13.090, -5.580, 24.020, -11.520, 27.30,,,,,,,,,,,, 0.99301, -0.02774, -0.00372, -0.11414,
 13:56:20.310,COM3,, 0.0000, -0.0166, 1.0015, -1.2817, -0.4883, 0.2441, -3.109, -0.786, -13.090, -5.573, 24.013, -11.520, 27.30,,,,,,,,,,,, 0.99301, -0.02774, -0.00372, -0.11414,
 13:56:20.326,COM3,, 0.0000, -0.0166, 1.0015, -1.2817, -0.4883, 0.2441, -3.109, -0.786, -13.090, -5.553, 24.007, -11.547, 27.30,,,,,,,,,,,, 0.99301, -0.02774, -0.00372, -0.11414,
 13:56:20.326,COM3,, 0.0000, -0.0166, 1.0015, -1.2817, -0.4883, 0.2441, -3.109, -0.786, -13.090, -5.533, 24.020, -11.573, 27.27,,,,,,,,,,,, 0.99301, -0.02774, -0.00372, -0.11411,
 13:56:20.326,COM3,, 0.0000, -0.0166, 1.0015, -1.2817, -0.4883, 0.2441, -3.109, -0.786, -13.085, -5.520, 24.020, -11.587, 27.27,,,,,,,,,,,, 0.99301, -0.02774, -0.00372, -0.11411,
 13:56:20.342,COM3,, 0.0000, -0.0166, 1.0015, -1.2817, -0.4883, 0.2441, -3.109, -0.786, -13.085, -5.527, 24.047, -11.627, 27.27,,,,,,,,,,,, 0.99304, -0.02774, -0.00372, -0.11407,
 13:56:20.342,COM3,, 0.0000, -0.0166, 1.0015, -1.2817, -0.4883, 0.2441, -3.109, -0.786, -13.085, -5.547, 24.067, -11.660, 27.27,,,,,,,,,,,, 0.99304, -0.02774, -0.00372, -0.11407,
 13:56:20.342,COM3,, -0.0005, -0.0166, 1.0015, -1.2817, -0.4883, 0.2441, -3.109, -0.786, -13.085, -5.560, 24.067, -11.667, 27.27,,,,,,,,,,,, 0.99304, -0.02774, -0.00372, -0.11407,
 13:56:20.358,COM3,, -0.0005, -0.0156, 1.0015, -1.3428, -0.4883, 0.2441, -3.109, -0.786, -13.079, -5.567, 24.080, -11.667, 27.27,,,,,,,,,,,, 0.99304, -0.02774, -0.00372, -0.11404,
 13:56:20.358,COM3,, -0.0005, -0.0156, 1.0015, -1.3428, -0.4883, 0.2441, -3.109, -0.786, -13.079, -5.553, 24.080, -11.667, 27.27,,,,,,,,,,,, 0.99304, -0.02774, -0.00372, -0.11404,
 13:56:20.358,COM3,, -0.0005, -0.0156, 1.0015, -1.3428, -0.4883, 0.2441, -3.109, -0.786, -13.079, -5.513, 24.080, -11.660, 27.27,,,,,,,,,,,, 0.99304, -0.02774, -0.00372, -0.11404,
 13:56:20.358,COM3,, 0.0000, -0.0156, 1.0015, -1.3428, -0.4883, 0.2441, -3.109, -0.786, -13.079, -5.493, 24.067, -11.647, 27.27,,,,,,,,,,,, 0.99304, -0.02774, -0.00372, -0.11401,
 13:56:20.375,COM3,, 0.0000, -0.0146, 1.0020, -1.2817, -0.4883, 0.2441, -3.109, -0.786, -13.074, -5.480, 24.053, -11.627, 27.30,,,,,,,,,,,, 0.99304, -0.02774, -0.00372, -0.11401,
 13:56:20.375,COM3,, 0.0000, -0.0146, 1.0020, -1.2817, -0.4883, 0.2441, -3.109, -0.786, -13.074, -5.473, 24.053, -11.613, 27.30,,,,,,,,,,,, 0.99304, -0.02774, -0.00372, -0.11398,
 13:56:20.375,COM3,, 0.0000, -0.0146, 1.0020, -1.2817, -0.4883, 0.2441, -3.109, -0.786, -13.074, -5.473, 24.047, -11.593, 27.30,,,,,,,,,,,, 0.99304, -0.02774, -0.00372, -0.11398,
 13:56:20.391,COM3,, -0.0005, -0.0146, 1.0020, -1.2817, -0.4883, 0.2441, -3.109, -0.786, -13.068, -5.480, 24.047, -11.587, 27.30,,,,,,,,,,,, 0.99304, -0.02774, -0.00372, -0.11395,
 13:56:20.391,COM3,, -0.0005, -0.0156, 1.0010, -1.2817, -0.4883, 0.2441, -3.109, -0.786, -13.068, -5.493, 24.047, -11.580, 27.30,,,,,,,,,,,, 0.99304, -0.02774, -0.00372, -0.11395,
 13:56:20.391,COM3,, -0.0005, -0.0156, 1.0010, -1.2817, -0.4883, 0.2441, -3.109, -0.786, -13.068, -5.493, 24.033, -11.573, 27.30,,,,,,,,,,,, 0.99304, -0.02774, -0.00372, -0.11392,
 13:56:20.407,COM3,, -0.0005, -0.0156, 1.0010, -1.2817, -0.4883, 0.2441, -3.109, -0.786, -13.068, -5.500, 24.020, -11.573, 27.30,,,,,,,,,,,, 0.99304, -0.02774, -0.00372, -0.11392,
 13:56:20.407,COM3,, 0.0000, -0.0156, 1.0010, -1.2817, -0.4883, 0.2441, -3.109, -0.786, -13.063, -5.520, 24.007, -11.573, 27.30,,,,,,,,,,,, 0.99304, -0.02774, -0.00372, -0.11389,
 13:56:20.407,COM3,, 0.0000, -0.0156, 1.0015, -1.3428, -0.4883, 0.1831, -3.109, -0.786, -13.063, -5.553, 24.000, -11.553, 27.27,,,,,,,,,,,, 0.99304, -0.02774, -0.00372, -0.11389,
 13:56:20.423,COM3,, 0.0000, -0.0156, 1.0015, -1.3428, -0.4883, 0.1831, -3.109, -0.786, -13.063, -5.600, 23.993, -11.533, 27.27,,,,,,,,,,,, 0.99304, -0.02774, -0.00372, -0.11389,
 13:56:20.423,COM3,, 0.0000, -0.0156, 1.0015, -1.3428, -0.4883, 0.1831, -3.109, -0.786, -13.063, -5.660, 23.987, -11.540, 27.27,,,,,,,,,,,, 0.99304, -0.02774, -0.00372, -0.11389,
 13:56:20.423,COM3,, 0.0000, -0.0156, 1.0015, -1.3428, -0.4883, 0.1831, -3.109, -0.786, -13.063, -5.707, 23.987, -11.560, 27.27,,,,,,,,,,,, 0.99304, -0.02774, -0.00372, -0.11389,
 13:56:20.423,COM3,, 0.0000, -0.0161, 1.0015, -1.3428, -0.4883, 0.2441, -3.109, -0.786, -13.063, -5.733, 23.980, -11.573, 27.33,,,,,,,,,,,, 0.99304, -0.02774, -0.00372, -0.11389,
 13:56:20.439,COM3,, 0.0000, -0.0161, 1.0015, -1.3428, -0.4883, 0.2441, -3.109, -0.786, -13.063, -5.747, 23.973, -11.580, 27.33,,,,,,,,,,,, 0.99304, -0.02774, -0.00372, -0.11389,
 13:56:20.439,COM3,, 0.0000, -0.0161, 1.0015, -1.3428, -0.4883, 0.2441, -3.109, -0.786, -13.063, -5.753, 23.967, -11.547, 27.33,,,,,,,,,,,, 0.99304, -0.02774, -0.00372, -0.11389,
 13:56:20.439,COM3,, 0.0000, -0.0161, 1.0015, -1.3428, -0.4883, 0.2441, -3.109, -0.786, -13.063, -5.767, 23.967, -11.500, 27.33,,,,,,,,,,,, 0.99304, -0.02774, -0.00372, -0.11389,
 13:56:20.455,COM3,, 0.0000, -0.0166, 1.0024, -1.3428, -0.4883, 0.2441, -3.109, -0.786, -13.063, -5.760, 23.953, -11.480, 27.27,,,,,,,,,,,, 0.99304, -0.02774, -0.00372, -0.11392,
 13:56:20.455,COM3,, 0.0000, -0.0166, 1.0024, -1.3428, -0.4883, 0.2441, -3.109, -0.786, -13.063, -5.753, 23.960, -11.467, 27.27,,,,,,,,,,,, 0.99304, -0.02774, -0.00372, -0.11392,
 13:56:20.455,COM3,, 0.0000, -0.0166, 1.0024, -1.3428, -0.4883, 0.2441, -3.109, -0.786, -13.063, -5.747, 23.967, -11.453, 27.27,,,,,,,,,,,, 0.99304, -0.02774, -0.00372, -0.11392,
 13:56:20.471,COM3,, -0.0005, -0.0166, 1.0024, -1.3428, -0.4883, 0.2441, -3.109, -0.786, -13.068, -5.740, 23.980, -11.453, 27.27,,,,,,,,,,,, 0.99304, -0.02774, -0.00372, -0.11392,
 13:56:20.471,COM3,, -0.0005, -0.0171, 1.0015, -1.2817, -0.4883, 0.1831, -3.109, -0.786, -13.068, -5.747, 24.013, -11.467, 27.31,,,,,,,,,,,, 0.99304, -0.02774, -0.00372, -0.11392,
 13:56:20.471,COM3,, -0.0005, -0.0171, 1.0015, -1.2817, -0.4883, 0.1831, -3.109, -0.786, -13.068, -5.760, 24.033, -11.480, 27.31,,,,,,,,,,,, 0.99304, -0.02774, -0.00372, -0.11392,
 13:56:20.487,COM3,, -0.0005, -0.0171, 1.0015, -1.2817, -0.4883, 0.1831, -3.109, -0.786, -13.068, -5.740, 24.047, -11.487, 27.31,,,,,,,,,,,, 0.99304, -0.02774, -0.00372, -0.11392,
 13:56:20.487,COM3,, 0.0000, -0.0171, 1.0015, -1.2817, -0.4883, 0.1831, -3.109, -0.786, -13.068, -5.707, 24.053, -11.513, 27.31,,,,,,,,,,,, 0.99304, -0.02774, -0.00372, -0.11392,
 13:56:20.487,COM3,, 0.0000, -0.0166, 1.0024, -1.3428, -0.4883, 0.2441, -3.109, -0.786, -13.068, -5.673, 24.047, -11.527, 27.27,,,,,,,,,,,, 0.99304, -0.02774, -0.00372, -0.11392,
 13:56:20.487,COM3,, 0.0000, -0.0166, 1.0024, -1.3428, -0.4883, 0.2441, -3.109, -0.786, -13.068, -5.660, 24.033, -11.540, 27.27,,,,,,,,,,,, 0.99304, -0.02774, -0.00372, -0.11392,
 13:56:20.503,COM3,, 0.0000, -0.0166, 1.0024, -1.3428, -0.4883, 0.2441, -3.109, -0.786, -13.068, -5.660, 24.020, -11.560, 27.27,,,,,,,,,,,, 0.99304, -0.02774, -0.00372, -0.11392,
 13:56:20.503,COM3,, 0.0000, -0.0166, 1.0024, -1.3428, -0.4883, 0.2441, -3.109, -0.786, -13.068, -5.660, 24.007, -11.573, 27.27,,,,,,,,,,,, 0.99304, -0.02774, -0.00372, -0.11392,
 13:56:20.503,COM3,, 0.0000, -0.0156, 1.0010, -1.2817, -0.4883, 0.2441, -3.109, -0.786, -13.063, -5.667, 23.993, -11.540, 27.27,,,,,,,,,,,, 0.99304, -0.02774, -0.00372, -0.11392,
 13:56:20.518,COM3,, 0.0000, -0.0156, 1.0010, -1.2817, -0.4883, 0.2441, -3.109, -0.786, -13.063, -5.647, 23.993, -11.513, 27.27,,,,,,,,,,,, 0.99304, -0.02774, -0.00372, -0.11392,
 13:56:20.518,COM3,, 0.0000, -0.0156, 1.0010, -1.2817, -0.4883, 0.2441, -3.109, -0.786, -13.063, -5.647, 23.980, -11.493, 27.27,,,,,,,,,,,, 0.99304, -0.02774, -0.00372, -0.11389,
 13:56:20.518,COM3,, 0.0000, -0.0156, 1.0010, -1.2817, -0.4883, 0.2441, -3.109, -0.786, -13.063, -5.653, 23.967, -11.487, 27.27,,,,,,,,,,,, 0.99304, -0.02774, -0.00372, -0.11389,
 13:56:20.534,COM3,, 0.0000, -0.0156, 1.0015, -1.2817, -0.4883, 0.2441, -3.109, -0.786, -13.063, -5.653, 23.953, -11.480, 27.31,,,,,,,,,,,, 0.99304, -0.02774, -0.00372, -0.11389,
 13:56:20.534,COM3,, 0.0000, -0.0156, 1.0015, -1.2817, -0.4883, 0.2441, -3.109, -0.786, -13.063, -5.653, 23.933, -11.487, 27.31,,,,,,,,,,,, 0.99304, -0.02774, -0.00372, -0.11389,
 13:56:20.534,COM3,, 0.0000, -0.0156, 1.0015, -1.2817, -0.4883, 0.2441, -3.109, -0.786, -13.063, -5.647, 23.920, -11.487, 27.31,,,,,,,,,,,, 0.99304, -0.02774, -0.00372, -0.11389,
 13:56:20.550,COM3,, 0.0000, -0.0156, 1.0015, -1.2817, -0.4883, 0.2441, -3.109, -0.786, -13.063, -5.653, 23.913, -11.473, 27.31,,,,,,,,,,,, 0.99304, -0.02774, -0.00372, -0.11389,
 13:56:20.550,COM3,, 0.0000, -0.0151, 1.0015, -1.2817, -0.4883, 0.2441, -3.109, -0.786, -13.063, -5.667, 23.913, -11.480, 27.30,,,,,,,,,,,, 0.99304, -0.02774, -0.00372, -0.11389,
 13:56:20.550,COM3,, 0.0000, -0.0151, 1.0015, -1.2817, -0.4883, 0.2441, -3.109, -0.786, -13.063, -5.687, 23.913, -11.487, 27.30,,,,,,,,,,,, 0.99304, -0.02774, -0.00372, -0.11389,
 13:56:20.567,COM3,, 0.0000, -0.0151, 1.0015, -1.2817, -0.4883, 0.2441, -3.109, -0.786, -13.063, -5.687, 23.913, -11.527, 27.30,,,,,,,,,,,, 0.99304, -0.02774, -0.00372, -0.11389,
 13:56:20.567,COM3,, 0.0000, -0.0151, 1.0015, -1.2817, -0.4883, 0.2441, -3.109, -0.786, -13.063, -5.667, 23.913, -11.547, 27.30,,,,,,,,,,,, 0.99304, -0.02774, -0.00372, -0.11389,
 13:56:20.567,COM3,, 0.0000, -0.0151, 1.0015, -1.3428, -0.4883, 0.2441, -3.109, -0.786, -13.063, -5.653, 23.907, -11.553, 27.31,,,,,,,,,,,, 0.99304, -0.02774, -0.00372, -0.11389,
 13:56:20.584,COM3,, 0.0000, -0.0151, 1.0015, -1.3428, -0.4883, 0.2441, -3.109, -0.786, -13.063, -5.640, 23.907, -11.567, 27.31,,,,,,,,,,,, 0.99304, -0.02774, -0.00372, -0.11389,
 13:56:20.585,COM3,, 0.0000, -0.0151, 1.0015, -1.3428, -0.4883, 0.2441, -3.109, -0.786, -13.063, -5.627, 23.907, -11.560, 27.31,,,,,,,,,,,, 0.99304, -0.02774, -0.00372, -0.11389,
 13:56:20.585,COM3,, 0.0000, -0.0151, 1.0015, -1.3428, -0.4883, 0.2441, -3.109, -0.786, -13.063, -5.613, 23.900, -11.567, 27.31,,,,,,,,,,,, 0.99304, -0.02774, -0.00372, -0.11386,
 13:56:20.601,COM3,, 0.0000, -0.0156, 1.0015, -1.3428, -0.4883, 0.2441, -3.109, -0.786, -13.063, -5.607, 23.893, -11.580, 27.31,,,,,,,,,,,, 0.99304, -0.02774, -0.00372, -0.11386,
 13:56:20.601,COM3,, 0.0000, -0.0156, 1.0015, -1.3428, -0.4883, 0.2441, -3.109, -0.786, -13.057, -5.607, 23.887, -11.613, 27.31,,,,,,,,,,,, 0.99304, -0.02774, -0.00372, -0.11386,
 13:56:20.601,COM3,, 0.0000, -0.0156, 1.0015, -1.3428, -0.4883, 0.2441, -3.109, -0.786, -13.057, -5.600, 23.893, -11.633, 27.31,,,,,,,,,,,, 0.99304, -0.02774, -0.00372, -0.11386,
 13:56:20.601,COM3,, -0.0010, -0.0156, 1.0015, -1.3428, -0.4883, 0.2441, -3.109, -0.786, -13.057, -5.600, 23.907, -11.640, 27.31,,,,,,,,,,,, 0.99304, -0.02774, -0.00372, -0.11386,
 13:56:20.617,COM3,, -0.0010, -0.0161, 1.0010, -1.3428, -0.4883, 0.2441, -3.109, -0.786, -13.057, -5.587, 23.913, -11.653, 27.30,,,,,,,,,,,, 0.99304, -0.02774, -0.00372, -0.11386,
 13:56:20.617,COM3,, -0.0010, -0.0161, 1.0010, -1.3428, -0.4883, 0.2441, -3.109, -0.786, -13.057, -5.573, 23.927, -11.667, 27.30,,,,,,,,,,,, 0.99304, -0.02774, -0.00372, -0.11383,
 13:56:20.617,COM3,, -0.0010, -0.0161, 1.0010, -1.3428, -0.4883, 0.2441, -3.109, -0.786, -13.057, -5.587, 23.927, -11.687, 27.30,,,,,,,,,,,, 0.99307, -0.02774, -0.00372, -0.11383,
 13:56:20.617,COM3,, -0.0005, -0.0161, 1.0010, -1.3428, -0.4883, 0.2441, -3.109, -0.786, -13.057, -5.593, 23.933, -11.693, 27.30,,,,,,,,,,,, 0.99307, -0.02774, -0.00372, -0.11383,
 13:56:20.634,COM3,, -0.0005, -0.0161, 1.0020, -1.3428, -0.4883, 0.1831, -3.109, -0.786, -13.057, -5.587, 23.933, -11.713, 27.30,,,,,,,,,,,, 0.99307, -0.02774, -0.00372, -0.11383,
 13:56:20.634,COM3,, -0.0005, -0.0161, 1.0020, -1.3428, -0.4883, 0.1831, -3.109, -0.786, -13.052, -5.587, 23.947, -11.727, 27.30,,,,,,,,,,,, 0.99307, -0.02774, -0.00372, -0.11383,
 13:56:20.634,COM3,, -0.0005, -0.0161, 1.0020, -1.3428, -0.4883, 0.1831, -3.109, -0.786, -13.052, -5.560, 23.953, -11.713, 27.30,,,,,,,,,,,, 0.99307, -0.02774, -0.00372, -0.11380,
 13:56:20.650,COM3,, 0.0005, -0.0161, 1.0020, -1.3428, -0.4883, 0.1831, -3.109, -0.786, -13.052, -5.540, 23.973, -11.720, 27.30,,,,,,,,,,,, 0.99307, -0.02774, -0.00372, -0.11380,
 13:56:20.650,COM3,, 0.0005, -0.0176, 1.0024, -1.3428, -0.4883, 0.2441, -3.109, -0.786, -13.052, -5.527, 23.980, -11.693, 27.27,,,,,,,,,,,, 0.99307, -0.02774, -0.00372, -0.11380,
 13:56:20.650,COM3,, 0.0005, -0.0176, 1.0024, -1.3428, -0.4883, 0.2441, -3.109, -0.786, -13.052, -5.540, 23.980, -11.660, 27.27,,,,,,,,,,,, 0.99307, -0.02774, -0.00372, -0.11380,
 13:56:20.665,COM3,, 0.0005, -0.0176, 1.0024, -1.3428, -0.4883, 0.2441, -3.109, -0.786, -13.052, -5.540, 23.987, -11.647, 27.27,,,,,,,,,,,, 0.99307, -0.02774, -0.00372, -0.11377,
 13:56:20.665,COM3,, 0.0000, -0.0176, 1.0024, -1.3428, -0.4883, 0.2441, -3.109, -0.786, -13.046, -5.553, 23.987, -11.620, 27.27,,,,,,,,,,,, 0.99307, -0.02774, -0.00372, -0.11377,
 13:56:20.665,COM3,, 0.0000, -0.0181, 1.0020, -1.3428, -0.4883, 0.2441, -3.109, -0.786, -13.046, -5.580, 23.993, -11.600, 27.30,,,,,,,,,,,, 0.99307, -0.02774, -0.00372, -0.11377,
 13:56:20.681,COM3,, 0.0000, -0.0181, 1.0020, -1.3428, -0.4883, 0.2441, -3.109, -0.786, -13.046, -5.587, 23.993, -11.567, 27.30,,,,,,,,,,,, 0.99307, -0.02774, -0.00372, -0.11374,
 13:56:20.681,COM3,, 0.0000, -0.0181, 1.0020, -1.3428, -0.4883, 0.2441, -3.109, -0.786, -13.046, -5.607, 23.993, -11.553, 27.30,,,,,,,,,,,, 0.99307, -0.02774, -0.00372, -0.11374,
 13:56:20.681,COM3,, 0.0010, -0.0181, 1.0020, -1.3428, -0.4883, 0.2441, -3.109, -0.786, -13.046, -5.627, 23.993, -11.520, 27.30,,,,,,,,,,,, 0.99307, -0.02774, -0.00372, -0.11374,
 13:56:20.697,COM3,, 0.0010, -0.0176, 1.0020, -1.3428, -0.4883, 0.3052, -3.109, -0.786, -13.046, -5.640, 23.993, -11.527, 27.31,,,,,,,,,,,, 0.99307, -0.02777, -0.00372, -0.11374,
 13:56:20.697,COM3,, 0.0010, -0.0176, 1.0020, -1.3428, -0.4883, 0.3052, -3.109, -0.786, -13.046, -5.633, 23.993, -11.540, 27.31,,,,,,,,,,,, 0.99307, -0.02777, -0.00372, -0.11374,
 13:56:20.697,COM3,, 0.0010, -0.0176, 1.0020, -1.3428, -0.4883, 0.3052, -3.109, -0.786, -13.041, -5.640, 23.987, -11.560, 27.31,,,,,,,,,,,, 0.99307, -0.02777, -0.00372, -0.11371,
 13:56:20.697,COM3,, 0.0010, -0.0176, 1.0020, -1.3428, -0.4883, 0.3052, -3.109, -0.786, -13.041, -5.640, 23.993, -11.593, 27.31,,,,,,,,,,,, 0.99307, -0.02777, -0.00372, -0.11371,
 13:56:20.713,COM3,, 0.0010, -0.0161, 1.0010, -1.3428, -0.4883, 0.3052, -3.115, -0.786, -13.041, -5.647, 23.993, -11.593, 27.33,,,,,,,,,,,, 0.99307, -0.02777, -0.00372, -0.11371,
 13:56:20.713,COM3,, 0.0010, -0.0161, 1.0010, -1.3428, -0.4883, 0.3052, -3.115, -0.786, -13.041, -5.653, 23.993, -11.593, 27.33,,,,,,,,,,,, 0.99307, -0.02777, -0.00372, -0.11371,
 13:56:20.713,COM3,, 0.0010, -0.0161, 1.0010, -1.3428, -0.4883, 0.3052, -3.115, -0.786, -13.041, -5.653, 24.013, -11.560, 27.33,,,,,,,,,,,, 0.99307, -0.02777, -0.00372, -0.11371,
 13:56:20.729,COM3,, -0.0015, -0.0161, 1.0010, -1.3428, -0.4883, 0.3052, -3.115, -0.786, -13.041, -5.653, 24.020, -11.533, 27.33,,,,,,,,,,,, 0.99307, -0.02777, -0.00372, -0.11368,
 13:56:20.729,COM3,, -0.0015, -0.0137, 1.0010, -1.3428, -0.4883, 0.3052, -3.115, -0.786, -13.041, -5.647, 24.020, -11.493, 27.31,,,,,,,,,,,, 0.99307, -0.02777, -0.00372, -0.11368,
 13:56:20.729,COM3,, -0.0015, -0.0137, 1.0010, -1.3428, -0.4883, 0.3052, -3.115, -0.786, -13.041, -5.633, 24.013, -11.480, 27.31,,,,,,,,,,,, 0.99307, -0.02777, -0.00372, -0.11368,
 13:56:20.744,COM3,, -0.0015, -0.0137, 1.0010, -1.3428, -0.4883, 0.3052, -3.115, -0.786, -13.035, -5.613, 23.993, -11.460, 27.31,,,,,,,,,,,, 0.99307, -0.02777, -0.00372, -0.11368,
 13:56:20.744,COM3,, -0.0073, -0.0137, 1.0010, -1.3428, -0.4883, 0.3052, -3.115, -0.786, -13.035, -5.587, 23.987, -11.467, 27.31,,,,,,,,,,,, 0.99307, -0.02777, -0.00372, -0.11365,
 13:56:20.744,COM3,, -0.0073, -0.0112, 1.0010, -1.3428, -0.4883, 0.1831, -3.115, -0.786, -13.035, -5.580, 24.000, -11.473, 27.33,,,,,,,,,,,, 0.99307, -0.02777, -0.00372, -0.11365,
 13:56:20.760,COM3,, -0.0073, -0.0112, 1.0010, -1.3428, -0.4883, 0.1831, -3.115, -0.786, -13.035, -5.580, 24.000, -11.460, 27.33,,,,,,,,,,,, 0.99307, -0.02777, -0.00372, -0.11365,
 13:56:20.760,COM3,, -0.0073, -0.0112, 1.0010, -1.3428, -0.4883, 0.1831, -3.115, -0.786, -13.035, -5.573, 24.000, -11.467, 27.33,,,,,,,,,,,, 0.99307, -0.02777, -0.00372, -0.11365,
 13:56:20.760,COM3,, 0.0015, -0.0112, 1.0010, -1.3428, -0.4883, 0.1831, -3.115, -0.786, -13.035, -5.580, 23.993, -11.460, 27.33,,,,,,,,,,,, 0.99307, -0.02777, -0.00372, -0.11365,
 13:56:20.776,COM3,, 0.0015, -0.0161, 1.0015, -1.3428, -0.4883, 0.1831, -3.115, -0.786, -13.035, -5.593, 23.980, -11.467, 27.30,,,,,,,,,,,, 0.99307, -0.02777, -0.00372, -0.11365,
 13:56:20.776,COM3,, 0.0015, -0.0161, 1.0015, -1.3428, -0.4883, 0.1831, -3.115, -0.786, -13.035, -5.607, 23.980, -11.493, 27.30,,,,,,,,,,,, 0.99307, -0.02777, -0.00372, -0.11365,
 13:56:20.776,COM3,, 0.0015, -0.0161, 1.0015, -1.3428, -0.4883, 0.1831, -3.115, -0.786, -13.035, -5.607, 23.973, -11.533, 27.30,,,,,,,,,,,, 0.99307, -0.02777, -0.00372, -0.11365,
 13:56:20.791,COM3,, 0.0000, -0.0161, 1.0015, -1.3428, -0.4883, 0.1831, -3.115, -0.786, -13.035, -5.620, 23.960, -11.573, 27.30,,,,,,,,,,,, 0.99307, -0.02777, -0.00372, -0.11365,
 13:56:20.791,COM3,, 0.0000, -0.0166, 1.0015, -1.2817, -0.4883, 0.2441, -3.115, -0.786, -13.035, -5.613, 23.947, -11.600, 27.31,,,,,,,,,,,, 0.99307, -0.02777, -0.00372, -0.11365,
 13:56:20.791,COM3,, 0.0000, -0.0166, 1.0015, -1.2817, -0.4883, 0.2441, -3.115, -0.786, -13.030, -5.593, 23.920, -11.627, 27.31,,,,,,,,,,,, 0.99307, -0.02777, -0.00372, -0.11362,
 13:56:20.791,COM3,, 0.0000, -0.0166, 1.0015, -1.2817, -0.4883, 0.2441, -3.115, -0.786, -13.030, -5.600, 23.913, -11.620, 27.31,,,,,,,,,,,, 0.99307, -0.02777, -0.00372, -0.11362,
 13:56:20.807,COM3,, -0.0024, -0.0166, 1.0015, -1.2817, -0.4883, 0.2441, -3.115, -0.786, -13.030, -5.613, 23.920, -11.620, 27.31,,,,,,,,,,,, 0.99307, -0.02777, -0.00372, -0.11362,
 13:56:20.807,COM3,, -0.0024, -0.0151, 1.0015, -1.3428, -0.4883, 0.1831, -3.115, -0.786, -13.030, -5.627, 23.920, -11.613, 27.33,,,,,,,,,,,, 0.99307, -0.02777, -0.00372, -0.11362,
 13:56:20.823,COM3,, -0.0024, -0.0151, 1.0015, -1.3428, -0.4883, 0.1831, -3.115, -0.786, -13.030, -5.653, 23.940, -11.573, 27.33,,,,,,,,,,,, 0.99307, -0.02777, -0.00372, -0.11362,
 13:56:20.823,COM3,, -0.0024, -0.0151, 1.0015, -1.3428, -0.4883, 0.1831, -3.115, -0.786, -13.030, -5.660, 23.947, -11.547, 27.33,,,,,,,,,,,, 0.99307, -0.02777, -0.00372, -0.11362,
 13:56:20.823,COM3,, 0.0010, -0.0151, 1.0015, -1.3428, -0.4883, 0.1831, -3.115, -0.786, -13.030, -5.660, 23.953, -11.533, 27.33,,,,,,,,,,,, 0.99307, -0.02777, -0.00369, -0.11362,
 13:56:20.823,COM3,, 0.0010, -0.0176, 1.0015, -1.2817, -0.4883, 0.1831, -3.115, -0.780, -13.030, -5.660, 23.947, -11.507, 27.28,,,,,,,,,,,, 0.99307, -0.02777, -0.00369, -0.11362,
 13:56:20.839,COM3,, 0.0010, -0.0176, 1.0015, -1.2817, -0.4883, 0.1831, -3.109, -0.780, -13.030, -5.660, 23.933, -11.513, 27.28,,,,,,,,,,,, 0.99307, -0.02777, -0.00369, -0.11362,
 13:56:20.839,COM3,, 0.0010, -0.0176, 1.0015, -1.2817, -0.4883, 0.1831, -3.109, -0.780, -13.030, -5.667, 23.927, -11.527, 27.28,,,,,,,,,,,, 0.99307, -0.02777, -0.00369, -0.11362,
 13:56:20.839,COM3,, 0.0000, -0.0176, 1.0015, -1.2817, -0.4883, 0.1831, -3.109, -0.780, -13.035, -5.660, 23.927, -11.540, 27.28,,,,,,,,,,,, 0.99307, -0.02777, -0.00369, -0.11362,
 13:56:20.855,COM3,, 0.0000, -0.0181, 1.0015, -1.2817, -0.4883, 0.2441, -3.109, -0.780, -13.030, -5.673, 23.953, -11.573, 27.30,,,,,,,,,,,, 0.99307, -0.02774, -0.00369, -0.11362,
 13:56:20.855,COM3,, 0.0000, -0.0181, 1.0015, -1.2817, -0.4883, 0.2441, -3.109, -0.780, -13.030, -5.673, 23.980, -11.587, 27.30,,,,,,,,,,,, 0.99307, -0.02774, -0.00369, -0.11362,
 13:56:20.855,COM3,, 0.0000, -0.0181, 1.0015, -1.2817, -0.4883, 0.2441, -3.109, -0.780, -13.030, -5.660, 24.000, -11.580, 27.30,,,,,,,,,,,, 0.99307, -0.02774, -0.00369, -0.11362,
 13:56:20.870,COM3,, -0.0024, -0.0181, 1.0015, -1.2817, -0.4883, 0.2441, -3.109, -0.780, -13.030, -5.673, 24.007, -11.573, 27.30,,,,,,,,,,,, 0.99307, -0.02774, -0.00369, -0.11362,
 13:56:20.870,COM3,, -0.0024, -0.0161, 1.0020, -1.2817, -0.4883, 0.2441, -3.109, -0.780, -13.030, -5.680, 24.007, -11.567, 27.33,,,,,,,,,,,, 0.99307, -0.02774, -0.00369, -0.11362,
 13:56:20.870,COM3,, -0.0024, -0.0161, 1.0020, -1.2817, -0.4883, 0.2441, -3.109, -0.780, -13.030, -5.693, 24.000, -11.560, 27.33,,,,,,,,,,,, 0.99307, -0.02774, -0.00369, -0.11362,
 13:56:20.886,COM3,, -0.0024, -0.0161, 1.0020, -1.2817, -0.4883, 0.2441, -3.109, -0.780, -13.030, -5.727, 23.993, -11.547, 27.33,,,,,,,,,,,, 0.99307, -0.02774, -0.00369, -0.11362,
 13:56:20.886,COM3,, -0.0010, -0.0161, 1.0020, -1.2817, -0.4883, 0.2441, -3.109, -0.780, -13.035, -5.753, 23.993, -11.560, 27.33,,,,,,,,,,,, 0.99307, -0.02774, -0.00369, -0.11362,
 13:56:20.886,COM3,, -0.0010, -0.0166, 1.0015, -1.3428, -0.5493, 0.1221, -3.109, -0.780, -13.035, -5.767, 23.987, -11.567, 27.27,,,,,,,,,,,, 0.99307, -0.02774, -0.00369, -0.11365,
 13:56:20.886,COM3,, -0.0010, -0.0166, 1.0015, -1.3428, -0.5493, 0.1221, -3.109, -0.780, -13.035, -5.787, 23.980, -11.573, 27.27,,,,,,,,,,,, 0.99307, -0.02774, -0.00369, -0.11365,
 13:56:20.903,COM3,, -0.0010, -0.0166, 1.0015, -1.3428, -0.5493, 0.1221, -3.109, -0.780, -13.035, -5.787, 23.967, -11.587, 27.27,,,,,,,,,,,, 0.99307, -0.02774, -0.00369, -0.11365,
 13:56:20.903,COM3,, -0.0005, -0.0166, 1.0015, -1.3428, -0.5493, 0.1221, -3.109, -0.780, -13.035, -5.793, 23.973, -11.573, 27.27,,,,,,,,,,,, 0.99307, -0.02774, -0.00369, -0.11368,
 13:56:20.903,COM3,, -0.0005, -0.0166, 1.0015, -1.2817, -0.4883, 0.1831, -3.109, -0.780, -13.041, -5.787, 23.980, -11.560, 27.30,,,,,,,,,,,, 0.99307, -0.02774, -0.00369, -0.11368,
 13:56:20.918,COM3,, -0.0005, -0.0166, 1.0015, -1.2817, -0.4883, 0.1831, -3.109, -0.780, -13.041, -5.753, 23.993, -11.520, 27.30,,,,,,,,,,,, 0.99307, -0.02774, -0.00369, -0.11368,
 13:56:20.918,COM3,, -0.0005, -0.0166, 1.0015, -1.2817, -0.4883, 0.1831, -3.109, -0.780, -13.041, -5.687, 24.013, -11.500, 27.30,,,,,,,,,,,, 0.99307, -0.02774, -0.00369, -0.11368,
 13:56:20.918,COM3,, 0.0000, -0.0166, 1.0015, -1.2817, -0.4883, 0.1831, -3.109, -0.780, -13.041, -5.647, 24.027, -11.500, 27.30,,,,,,,,,,,, 0.99307, -0.02774, -0.00369, -0.11368,
 13:56:20.935,COM3,, 0.0000, -0.0151, 1.0010, -1.2817, -0.4883, 0.1831, -3.109, -0.780, -13.041, -5.620, 24.040, -11.507, 27.30,,,,,,,,,,,, 0.99307, -0.02774, -0.00369, -0.11368,
 13:56:20.935,COM3,, 0.0000, -0.0151, 1.0010, -1.2817, -0.4883, 0.1831, -3.109, -0.780, -13.041, -5.613, 24.067, -11.540, 27.30,,,,,,,,,,,, 0.99307, -0.02774, -0.00369, -0.11368,
 13:56:20.935,COM3,, 0.0000, -0.0151, 1.0010, -1.2817, -0.4883, 0.1831, -3.109, -0.780, -13.041, -5.647, 24.080, -11.580, 27.30,,,,,,,,,,,, 0.99307, -0.02774, -0.00369, -0.11368,
 13:56:20.951,COM3,, 0.0000, -0.0151, 1.0010, -1.2817, -0.4883, 0.1831, -3.109, -0.780, -13.041, -5.673, 24.093, -11.613, 27.30,,,,,,,,,,,, 0.99307, -0.02774, -0.00369, -0.11368,
 13:56:20.951,COM3,, 0.0000, -0.0146, 1.0015, -1.3428, -0.4883, 0.1831, -3.109, -0.780, -13.041, -5.687, 24.087, -11.607, 27.30,,,,,,,,,,,, 0.99307, -0.02774, -0.00369, -0.11368,
 13:56:20.951,COM3,, 0.0000, -0.0146, 1.0015, -1.3428, -0.4883, 0.1831, -3.109, -0.780, -13.041, -5.707, 24.067, -11.613, 27.30,,,,,,,,,,,, 0.99307, -0.02774, -0.00369, -0.11368,
 13:56:20.951,COM3,, 0.0000, -0.0146, 1.0015, -1.3428, -0.4883, 0.1831, -3.109, -0.780, -13.041, -5.720, 24.040, -11.580, 27.30,,,,,,,,,,,, 0.99307, -0.02774, -0.00369, -0.11368,
 13:56:20.967,COM3,, 0.0000, -0.0146, 1.0015, -1.3428, -0.4883, 0.1831, -3.109, -0.780, -13.041, -5.727, 24.027, -11.567, 27.30,,,,,,,,,,,, 0.99307, -0.02774, -0.00369, -0.11368,
 13:56:20.967,COM3,, 0.0000, -0.0151, 1.0010, -1.3428, -0.4883, 0.1831, -3.109, -0.780, -13.041, -5.720, 24.013, -11.560, 27.33,,,,,,,,,,,, 0.99307, -0.02774, -0.00369, -0.11371,
 13:56:20.983,COM3,, 0.0000, -0.0151, 1.0010, -1.3428, -0.4883, 0.1831, -3.109, -0.780, -13.041, -5.720, 24.007, -11.547, 27.33,,,,,,,,,,,, 0.99307, -0.02774, -0.00369, -0.11371,
 13:56:20.983,COM3,, 0.0000, -0.0151, 1.0010, -1.3428, -0.4883, 0.1831, -3.109, -0.780, -13.041, -5.693, 24.013, -11.547, 27.33,,,,,,,,,,,, 0.99307, -0.02774, -0.00369, -0.11371,
 13:56:20.983,COM3,, 0.0005, -0.0151, 1.0010, -1.3428, -0.4883, 0.1831, -3.109, -0.780, -13.041, -5.687, 24.033, -11.560, 27.33,,,,,,,,,,,, 0.99307, -0.02774, -0.00369, -0.11371,
 13:56:20.983,COM3,, 0.0005, -0.0161, 1.0015, -1.3428, -0.4883, 0.1831, -3.109, -0.780, -13.041, -5.680, 24.047, -11.567, 27.31,,,,,,,,,,,, 0.99307, -0.02774, -0.00369, -0.11371,
 13:56:20.998,COM3,, 0.0005, -0.0161, 1.0015, -1.3428, -0.4883, 0.1831, -3.109, -0.780, -13.041, -5.700, 24.047, -11.580, 27.31,,,,,,,,,,,, 0.99307, -0.02774, -0.00369, -0.11371,
 13:56:20.998,COM3,, 0.0005, -0.0161, 1.0015, -1.3428, -0.4883, 0.1831, -3.109, -0.780, -13.041, -5.747, 24.047, -11.600, 27.31,,,,,,,,,,,, 0.99307, -0.02774, -0.00369, -0.11371,
 13:56:20.998,COM3,, 0.0015, -0.0161, 1.0015, -1.3428, -0.4883, 0.1831, -3.109, -0.780, -13.041, -5.773, 24.033, -11.600, 27.31,,,,,,,,,,,, 0.99307, -0.02774, -0.00369, -0.11371,
 13:56:21.014,COM3,, 0.0015, -0.0181, 1.0015, -1.3428, -0.4883, 0.1831, -3.109, -0.780, -13.041, -5.787, 24.033, -11.607, 27.30,,,,,,,,,,,, 0.99307, -0.02774, -0.00369, -0.11371,
 13:56:21.014,COM3,, 0.0015, -0.0181, 1.0015, -1.3428, -0.4883, 0.1831, -3.109, -0.780, -13.046, -5.773, 24.053, -11.613, 27.30,,,,,,,,,,,, 0.99307, -0.02774, -0.00369, -0.11374,
 13:56:21.014,COM3,, 0.0015, -0.0181, 1.0015, -1.3428, -0.4883, 0.1831, -3.109, -0.780, -13.046, -5.760, 24.073, -11.600, 27.30,,,,,,,,,,,, 0.99307, -0.02774, -0.00369, -0.11374,
 13:56:21.030,COM3,, 0.0015, -0.0181, 1.0015, -1.3428, -0.4883, 0.1831, -3.109, -0.780, -13.046, -5.733, 24.073, -11.613, 27.30,,,,,,,,,,,, 0.99307, -0.02774, -0.00369, -0.11374,
 13:56:21.030,COM3,, 0.0015, -0.0181, 1.0015, -1.3428, -0.4883, 0.1831, -3.109, -0.780, -13.046, -5.727, 24.087, -11.613, 27.30,,,,,,,,,,,, 0.99307, -0.02774, -0.00369, -0.11374,
 13:56:21.030,COM3,, 0.0015, -0.0205, 1.0020, -1.2817, -0.4883, 0.2441, -3.109, -0.780, -13.046, -5.707, 24.087, -11.613, 27.33,,,,,,,,,,,, 0.99307, -0.02774, -0.00369, -0.11374,
 13:56:21.030,COM3,, 0.0015, -0.0205, 1.0020, -1.2817, -0.4883, 0.2441, -3.109, -0.780, -13.046, -5.700, 24.080, -11.620, 27.33,,,,,,,,,,,, 0.99307, -0.02774, -0.00369, -0.11374,
 13:56:21.046,COM3,, 0.0015, -0.0205, 1.0020, -1.2817, -0.4883, 0.2441, -3.109, -0.780, -13.046, -5.693, 24.080, -11.640, 27.33,,,,,,,,,,,, 0.99307, -0.02774, -0.00369, -0.11374,
 13:56:21.046,COM3,, -0.0005, -0.0205, 1.0020, -1.2817, -0.4883, 0.2441, -3.109, -0.780, -13.046, -5.660, 24.073, -11.633, 27.33,,,,,,,,,,,, 0.99307, -0.02774, -0.00369, -0.11374,
 13:56:21.046,COM3,, -0.0005, -0.0190, 1.0020, -1.2817, -0.4883, 0.2441, -3.109, -0.780, -13.046, -5.653, 24.073, -11.600, 27.31,,,,,,,,,,,, 0.99307, -0.02774, -0.00369, -0.11374,
 13:56:21.062,COM3,, -0.0005, -0.0190, 1.0020, -1.2817, -0.4883, 0.2441, -3.109, -0.780, -13.041, -5.647, 24.073, -11.567, 27.31,,,,,,,,,,,, 0.99307, -0.02774, -0.00369, -0.11371,
 13:56:21.062,COM3,, -0.0005, -0.0190, 1.0020, -1.2817, -0.4883, 0.2441, -3.109, -0.780, -13.041, -5.647, 24.053, -11.507, 27.31,,,,,,,,,,,, 0.99307, -0.02774, -0.00369, -0.11371,
 13:56:21.062,COM3,, -0.0044, -0.0190, 1.0020, -1.2817, -0.4883, 0.2441, -3.109, -0.780, -13.041, -5.660, 24.033, -11.480, 27.31,,,,,,,,,,,, 0.99307, -0.02774, -0.00369, -0.11371,
 13:56:21.078,COM3,, -0.0044, -0.0146, 1.0015, -1.2817, -0.5493, 0.2441, -3.109, -0.786, -13.041, -5.673, 24.007, -11.487, 27.31,,,,,,,,,,,, 0.99307, -0.02774, -0.00369, -0.11371,
 13:56:21.078,COM3,, -0.0044, -0.0146, 1.0015, -1.2817, -0.5493, 0.2441, -3.109, -0.786, -13.041, -5.673, 23.993, -11.493, 27.31,,,,,,,,,,,, 0.99307, -0.02774, -0.00372, -0.11371,
 13:56:21.078,COM3,, -0.0044, -0.0146, 1.0015, -1.2817, -0.5493, 0.2441, -3.109, -0.786, -13.041, -5.653, 24.000, -11.507, 27.31,,,,,,,,,,,, 0.99307, -0.02774, -0.00372, -0.11371,
 13:56:21.094,COM3,, -0.0063, -0.0146, 1.0015, -1.2817, -0.5493, 0.2441, -3.109, -0.786, -13.041, -5.647, 24.000, -11.520, 27.31,,,,,,,,,,,, 0.99307, -0.02774, -0.00372, -0.11371,
 13:56:21.094,COM3,, -0.0063, -0.0117, 1.0010, -1.3428, -0.4883, 0.1831, -3.109, -0.786, -13.041, -5.633, 24.007, -11.527, 27.33,,,,,,,,,,,, 0.99307, -0.02777, -0.00372, -0.11371,
 13:56:21.094,COM3,, -0.0063, -0.0117, 1.0010, -1.3428, -0.4883, 0.1831, -3.109, -0.786, -13.041, -5.620, 24.007, -11.547, 27.33,,,,,,,,,,,, 0.99307, -0.02777, -0.00372, -0.11371,
 13:56:21.110,COM3,, -0.0063, -0.0117, 1.0010, -1.3428, -0.4883, 0.1831, -3.109, -0.786, -13.041, -5.633, 24.000, -11.547, 27.33,,,,,,,,,,,, 0.99307, -0.02777, -0.00372, -0.11371,
 13:56:21.110,COM3,, -0.0044, -0.0117, 1.0010, -1.3428, -0.4883, 0.1831, -3.109, -0.786, -13.041, -5.640, 23.993, -11.540, 27.33,,,,,,,,,,,, 0.99307, -0.02777, -0.00369, -0.11371,
 13:56:21.110,COM3,, -0.0044, -0.0112, 1.0010, -1.3428, -0.4883, 0.0610, -3.109, -0.780, -13.041, -5.653, 23.993, -11.553, 27.31,,,,,,,,,,,, 0.99307, -0.02777, -0.00369, -0.11371,
 13:56:21.110,COM3,, -0.0044, -0.0112, 1.0010, -1.3428, -0.4883, 0.0610, -3.109, -0.780, -13.041, -5.660, 23.993, -11.567, 27.31,,,,,,,,,,,, 0.99307, -0.02777, -0.00369, -0.11371,
 13:56:21.126,COM3,, -0.0044, -0.0112, 1.0010, -1.3428, -0.4883, 0.0610, -3.109, -0.780, -13.041, -5.680, 23.980, -11.593, 27.31,,,,,,,,,,,, 0.99307, -0.02777, -0.00369, -0.11371,
 13:56:21.126,COM3,, 0.0054, -0.0112, 1.0010, -1.3428, -0.4883, 0.0610, -3.109, -0.780, -13.046, -5.673, 23.973, -11.647, 27.31,,,,,,,,,,,, 0.99307, -0.02777, -0.00369, -0.11374,
 13:56:21.126,COM3,, 0.0054, -0.0176, 1.0015, -1.3428, -0.4883, 0.1221, -3.109, -0.780, -13.046, -5.680, 23.960, -11.680, 27.30,,,,,,,,,,,, 0.99307, -0.02777, -0.00369, -0.11374,
 13:56:21.142,COM3,, 0.0054, -0.0176, 1.0015, -1.3428, -0.4883, 0.1221, -3.109, -0.780, -13.046, -5.673, 23.960, -11.700, 27.30,,,,,,,,,,,, 0.99307, -0.02777, -0.00369, -0.11374,
 13:56:21.142,COM3,, 0.0054, -0.0176, 1.0015, -1.3428, -0.4883, 0.1221, -3.109, -0.780, -13.046, -5.673, 23.973, -11.707, 27.30,,,,,,,,,,,, 0.99307, -0.02777, -0.00369, -0.11374,
 13:56:21.142,COM3,, 0.0107, -0.0176, 1.0015, -1.3428, -0.4883, 0.1221, -3.109, -0.780, -13.046, -5.687, 23.973, -11.687, 27.30,,,,,,,,,,,, 0.99307, -0.02777, -0.00369, -0.11374,
 13:56:21.158,COM3,, 0.0107, -0.0200, 1.0020, -1.2817, -0.4883, 0.3662, -3.109, -0.780, -13.046, -5.707, 23.987, -11.667, 27.28,,,,,,,,,,,, 0.99307, -0.02777, -0.00369, -0.11374,
 13:56:21.158,COM3,, 0.0107, -0.0200, 1.0020, -1.2817, -0.4883, 0.3662, -3.109, -0.780, -13.046, -5.720, 23.993, -11.647, 27.28,,,,,,,,,,,, 0.99307, -0.02774, -0.00369, -0.11374,
 13:56:21.158,COM3,, 0.0107, -0.0200, 1.0020, -1.2817, -0.4883, 0.3662, -3.109, -0.780, -13.046, -5.700, 24.000, -11.640, 27.28,,,,,,,,,,,, 0.99307, -0.02774, -0.00369, -0.11374,
 13:56:21.175,COM3,, 0.0059, -0.0200, 1.0020, -1.2817, -0.4883, 0.3662, -3.109, -0.780, -13.041, -5.680, 24.007, -11.647, 27.28,,,,,,,,,,,, 0.99307, -0.02774, -0.00369, -0.11374,
 13:56:21.175,COM3,, 0.0059, -0.0171, 1.0020, -1.2817, -0.4272, 0.4883, -3.109, -0.780, -13.041, -5.673, 24.013, -11.647, 27.31,,,,,,,,,,,, 0.99307, -0.02774, -0.00369, -0.11371,
 13:56:21.175,COM3,, 0.0059, -0.0171, 1.0020, -1.2817, -0.4272, 0.4883, -3.109, -0.780, -13.041, -5.653, 24.000, -11.640, 27.31,,,,,,,,,,,, 0.99307, -0.02774, -0.00369, -0.11371,
 13:56:21.190,COM3,, 0.0059, -0.0171, 1.0020, -1.2817, -0.4272, 0.4883, -3.109, -0.780, -13.041, -5.653, 23.993, -11.627, 27.31,,,,,,,,,,,, 0.99307, -0.02774, -0.00369, -0.11368,
 13:56:21.190,COM3,, -0.0015, -0.0171, 1.0020, -1.2817, -0.4272, 0.4883, -3.109, -0.780, -13.035, -5.653, 23.987, -11.607, 27.31,,,,,,,,,,,, 0.99307, -0.02774, -0.00369, -0.11368,
 13:56:21.190,COM3,, -0.0015, -0.0117, 1.0020, -1.2817, -0.4883, 0.3662, -3.109, -0.780, -13.035, -5.673, 23.980, -11.607, 27.31,,,,,,,,,,,, 0.99307, -0.02774, -0.00369, -0.11365,
 13:56:21.206,COM3,, -0.0015, -0.0117, 1.0020, -1.2817, -0.4883, 0.3662, -3.109, -0.780, -13.035, -5.700, 23.980, -11.607, 27.31,,,,,,,,,,,, 0.99307, -0.02774, -0.00369, -0.11365,
 13:56:21.206,COM3,, -0.0015, -0.0117, 1.0020, -1.2817, -0.4883, 0.3662, -3.109, -0.780, -13.035, -5.727, 23.980, -11.593, 27.31,,,,,,,,,,,, 0.99307, -0.02774, -0.00369, -0.11365,
 13:56:21.206,COM3,, -0.0059, -0.0117, 1.0020, -1.2817, -0.4883, 0.3662, -3.109, -0.786, -13.035, -5.727, 23.980, -11.593, 27.31,,,,,,,,,,,, 0.99307, -0.02774, -0.00372, -0.11365,
 13:56:21.206,COM3,, -0.0059, -0.0103, 1.0010, -1.2817, -0.4883, 0.1831, -3.109, -0.786, -13.035, -5.740, 23.967, -11.587, 27.28,,,,,,,,,,,, 0.99307, -0.02774, -0.00372, -0.11365,
 13:56:21.222,COM3,, -0.0059, -0.0103, 1.0010, -1.2817, -0.4883, 0.1831, -3.109, -0.786, -13.035, -5.747, 23.953, -11.587, 27.28,,,,,,,,,,,, 0.99307, -0.02774, -0.00372, -0.11365,
 13:56:21.222,COM3,, -0.0059, -0.0103, 1.0010, -1.2817, -0.4883, 0.1831, -3.109, -0.786, -13.035, -5.753, 23.940, -11.580, 27.28,,,,,,,,,,,, 0.99307, -0.02774, -0.00372, -0.11365,
 13:56:21.222,COM3,, -0.0039, -0.0103, 1.0010, -1.2817, -0.4883, 0.1831, -3.109, -0.786, -13.035, -5.767, 23.927, -11.580, 27.28,,,,,,,,,,,, 0.99307, -0.02774, -0.00372, -0.11368,
 13:56:21.238,COM3,, -0.0039, -0.0132, 1.0015, -1.2817, -0.4883, 0.0610, -3.109, -0.786, -13.041, -5.787, 23.920, -11.567, 27.31,,,,,,,,,,,, 0.99307, -0.02774, -0.00372, -0.11368,
 13:56:21.238,COM3,, -0.0039, -0.0132, 1.0015, -1.2817, -0.4883, 0.0610, -3.109, -0.786, -13.041, -5.780, 23.913, -11.547, 27.31,,,,,,,,,,,, 0.99307, -0.02771, -0.00372, -0.11368,
 13:56:21.238,COM3,, -0.0039, -0.0132, 1.0015, -1.2817, -0.4883, 0.0610, -3.109, -0.786, -13.041, -5.767, 23.920, -11.573, 27.31,,,,,,,,,,,, 0.99307, -0.02771, -0.00372, -0.11371,
 13:56:21.254,COM3,, 0.0010, -0.0132, 1.0015, -1.2817, -0.4883, 0.0610, -3.109, -0.786, -13.041, -5.747, 23.927, -11.593, 27.31,,,,,,,,,,,, 0.99307, -0.02771, -0.00372, -0.11371,
 13:56:21.254,COM3,, 0.0010, -0.0181, 1.0015, -1.3428, -0.4883, 0.0610, -3.104, -0.786, -13.046, -5.720, 23.947, -11.613, 27.30,,,,,,,,,,,, 0.99307, -0.02771, -0.00372, -0.11374,
 13:56:21.254,COM3,, 0.0010, -0.0181, 1.0015, -1.3428, -0.4883, 0.0610, -3.104, -0.786, -13.046, -5.680, 23.960, -11.633, 27.30,,,,,,,,,,,, 0.99307, -0.02771, -0.00372, -0.11374,
 13:56:21.271,COM3,, 0.0010, -0.0181, 1.0015, -1.3428, -0.4883, 0.0610, -3.104, -0.786, -13.046, -5.653, 23.967, -11.613, 27.30,,,,,,,,,,,, 0.99307, -0.02771, -0.00372, -0.11374,
 13:56:21.271,COM3,, 0.0034, -0.0181, 1.0015, -1.3428, -0.4883, 0.0610, -3.104, -0.786, -13.046, -5.620, 23.973, -11.593, 27.30,,,,,,,,,,,, 0.99307, -0.02771, -0.00372, -0.11374,
 13:56:21.271,COM3,, 0.0034, -0.0205, 1.0020, -1.2817, -0.4883, 0.1831, -3.104, -0.786, -13.046, -5.600, 23.973, -11.580, 27.31,,,,,,,,,,,, 0.99307, -0.02771, -0.00372, -0.11374,
 13:56:21.286,COM3,, 0.0034, -0.0205, 1.0020, -1.2817, -0.4883, 0.1831, -3.104, -0.786, -13.046, -5.587, 23.967, -11.567, 27.31,,,,,,,,,,,, 0.99307, -0.02771, -0.00372, -0.11374,
 13:56:21.286,COM3,, 0.0034, -0.0205, 1.0020, -1.2817, -0.4883, 0.1831, -3.104, -0.786, -13.046, -5.593, 23.960, -11.567, 27.31,,,,,,,,,,,, 0.99307, -0.02771, -0.00372, -0.11374,
 13:56:21.286,COM3,, 0.0010, -0.0205, 1.0020, -1.2817, -0.4883, 0.1831, -3.104, -0.786, -13.046, -5.607, 23.967, -11.573, 27.31,,,,,,,,,,,, 0.99307, -0.02771, -0.00372, -0.11374,
 13:56:21.286,COM3,, 0.0010, -0.0190, 1.0015, -1.3428, -0.4883, 0.3052, -3.104, -0.786, -13.041, -5.627, 23.960, -11.587, 27.30,,,,,,,,,,,, 0.99307, -0.02771, -0.00372, -0.11371,
 13:56:21.302,COM3,, 0.0010, -0.0190, 1.0015, -1.3428, -0.4883, 0.3052, -3.104, -0.786, -13.041, -5.660, 23.947, -11.600, 27.30,,,,,,,,,,,, 0.99307, -0.02771, -0.00372, -0.11371,
 13:56:21.302,COM3,, 0.0010, -0.0190, 1.0015, -1.3428, -0.4883, 0.3052, -3.104, -0.786, -13.041, -5.687, 23.927, -11.607, 27.30,,,,,,,,,,,, 0.99307, -0.02771, -0.00372, -0.11371,
 13:56:21.302,COM3,, -0.0034, -0.0190, 1.0015, -1.3428, -0.4883, 0.3052, -3.104, -0.786, -13.041, -5.707, 23.907, -11.613, 27.30,,,,,,,,,,,, 0.99307, -0.02771, -0.00372, -0.11371,
 13:56:21.318,COM3,, -0.0034, -0.0156, 1.0015, -1.3428, -0.4883, 0.3052, -3.104, -0.786, -13.041, -5.713, 23.900, -11.613, 27.33,,,,,,,,,,,, 0.99307, -0.02771, -0.00372, -0.11371,
 13:56:21.318,COM3,, -0.0034, -0.0156, 1.0015, -1.3428, -0.4883, 0.3052, -3.109, -0.786, -13.041, -5.727, 23.907, -11.620, 27.33,,,,,,,,,,,, 0.99307, -0.02771, -0.00372, -0.11371,
 13:56:21.318,COM3,, -0.0034, -0.0156, 1.0015, -1.3428, -0.4883, 0.3052, -3.109, -0.786, -13.041, -5.747, 23.927, -11.627, 27.33,,,,,,,,,,,, 0.99307, -0.02771, -0.00372, -0.11371,
 13:56:21.335,COM3,, -0.0044, -0.0156, 1.0015, -1.3428, -0.4883, 0.3052, -3.109, -0.786, -13.041, -5.753, 23.940, -11.627, 27.33,,,,,,,,,,,, 0.99307, -0.02771, -0.00372, -0.11371,
 13:56:21.335,COM3,, -0.0044, -0.0142, 1.0010, -1.3428, -0.4883, 0.1831, -3.109, -0.786, -13.041, -5.740, 23.940, -11.620, 27.31,,,,,,,,,,,, 0.99307, -0.02771, -0.00372, -0.11371,
 13:56:21.335,COM3,, -0.0044, -0.0142, 1.0010, -1.3428, -0.4883, 0.1831, -3.109, -0.786, -13.041, -5.727, 23.933, -11.607, 27.31,,,,,,,,,,,, 0.99307, -0.02771, -0.00372, -0.11371,
 13:56:21.351,COM3,, -0.0044, -0.0142, 1.0010, -1.3428, -0.4883, 0.1831, -3.109, -0.786, -13.046, -5.720, 23.920, -11.607, 27.31,,,,,,,,,,,, 0.99307, -0.02771, -0.00372, -0.11374,
 13:56:21.351,COM3,, -0.0024, -0.0142, 1.0010, -1.3428, -0.4883, 0.1831, -3.109, -0.786, -13.046, -5.720, 23.907, -11.620, 27.31,,,,,,,,,,,, 0.99307, -0.02771, -0.00372, -0.11374,
 13:56:21.351,COM3,, -0.0024, -0.0161, 1.0010, -1.3428, -0.4883, 0.1221, -3.109, -0.786, -13.046, -5.720, 23.900, -11.627, 27.30,,,,,,,,,,,, 0.99307, -0.02774, -0.00372, -0.11374,
 13:56:21.351,COM3,, -0.0024, -0.0161, 1.0010, -1.3428, -0.4883, 0.1221, -3.109, -0.786, -13.046, -5.713, 23.913, -11.627, 27.30,,,,,,,,,,,, 0.99307, -0.02774, -0.00372, -0.11374,
 13:56:21.367,COM3,, -0.0024, -0.0161, 1.0010, -1.3428, -0.4883, 0.1221, -3.109, -0.786, -13.046, -5.693, 23.927, -11.620, 27.30,,,,,,,,,,,, 0.99307, -0.02774, -0.00372, -0.11377,
 13:56:21.367,COM3,, 0.0015, -0.0161, 1.0010, -1.3428, -0.4883, 0.1221, -3.109, -0.786, -13.046, -5.667, 23.947, -11.613, 27.30,,,,,,,,,,,, 0.99307, -0.02774, -0.00372, -0.11377,
 13:56:21.367,COM3,, 0.0015, -0.0186, 1.0015, -1.2817, -0.4883, 0.1221, -3.109, -0.786, -13.046, -5.653, 23.960, -11.593, 27.31,,,,,,,,,,,, 0.99307, -0.02774, -0.00372, -0.11377,
 13:56:21.383,COM3,, 0.0015, -0.0186, 1.0015, -1.2817, -0.4883, 0.1221, -3.109, -0.786, -13.046, -5.640, 23.960, -11.560, 27.31,,,,,,,,,,,, 0.99307, -0.02774, -0.00372, -0.11377,
 13:56:21.383,COM3,, 0.0015, -0.0186, 1.0015, -1.2817, -0.4883, 0.1221, -3.109, -0.786, -13.046, -5.613, 23.947, -11.540, 27.31,,,,,,,,,,,, 0.99307, -0.02771, -0.00372, -0.11377,
 13:56:21.383,COM3,, 0.0029, -0.0186, 1.0015, -1.2817, -0.4883, 0.1221, -3.109, -0.786, -13.046, -5.587, 23.940, -11.507, 27.31,,,,,,,,,,,, 0.99307, -0.02771, -0.00372, -0.11377,
 13:56:21.398,COM3,, 0.0029, -0.0176, 1.0015, -1.3428, -0.4883, 0.2441, -3.109, -0.786, -13.046, -5.533, 23.927, -11.487, 27.27,,,,,,,,,,,, 0.99307, -0.02771, -0.00372, -0.11377,
 13:56:21.398,COM3,, 0.0029, -0.0176, 1.0015, -1.3428, -0.4883, 0.2441, -3.109, -0.786, -13.046, -5.500, 23.920, -11.487, 27.27,,,,,,,,,,,, 0.99307, -0.02774, -0.00372, -0.11374,
 13:56:21.398,COM3,, 0.0029, -0.0176, 1.0015, -1.3428, -0.4883, 0.2441, -3.109, -0.786, -13.046, -5.487, 23.933, -11.473, 27.27,,,,,,,,,,,, 0.99307, -0.02774, -0.00372, -0.11374,
 13:56:21.398,COM3,, 0.0015, -0.0176, 1.0015, -1.3428, -0.4883, 0.2441, -3.109, -0.786, -13.041, -5.493, 23.940, -11.467, 27.27,,,,,,,,,,,, 0.99307, -0.02774, -0.00372, -0.11371,
 13:56:21.415,COM3,, 0.0015, -0.0156, 1.0015, -1.2817, -0.4883, 0.3052, -3.109, -0.786, -13.041, -5.507, 23.960, -11.453, 27.27,,,,,,,,,,,, 0.99307, -0.02774, -0.00372, -0.11371,
 13:56:21.415,COM3,, 0.0015, -0.0156, 1.0015, -1.2817, -0.4883, 0.3052, -3.109, -0.786, -13.041, -5.520, 23.973, -11.453, 27.27,,,,,,,,,,,, 0.99307, -0.02774, -0.00372, -0.11371,
 13:56:21.431,COM3,, 0.0015, -0.0156, 1.0015, -1.2817, -0.4883, 0.3052, -3.109, -0.786, -13.041, -5.560, 23.980, -11.460, 27.27,,,,,,,,,,,, 0.99307, -0.02774, -0.00372, -0.11368,
 13:56:21.431,COM3,, -0.0015, -0.0156, 1.0015, -1.2817, -0.4883, 0.3052, -3.109, -0.786, -13.035, -5.567, 23.980, -11.473, 27.27,,,,,,,,,,,, 0.99307, -0.02774, -0.00372, -0.11368,
 13:56:21.431,COM3,, -0.0015, -0.0132, 1.0010, -1.3428, -0.4883, 0.3052, -3.109, -0.786, -13.035, -5.587, 23.973, -11.473, 27.30,,,,,,,,,,,, 0.99307, -0.02774, -0.00372, -0.11368,
 13:56:21.431,COM3,, -0.0015, -0.0132, 1.0010, -1.3428, -0.4883, 0.3052, -3.109, -0.786, -13.035, -5.600, 23.967, -11.460, 27.30,,,,,,,,,,,, 0.99307, -0.02774, -0.00372, -0.11365,
 13:56:21.446,COM3,, -0.0015, -0.0132, 1.0010, -1.3428, -0.4883, 0.3052, -3.109, -0.786, -13.035, -5.580, 23.947, -11.447, 27.30,,,,,,,,,,,, 0.99307, -0.02774, -0.00372, -0.11365,
 13:56:21.446,COM3,, -0.0024, -0.0132, 1.0010, -1.3428, -0.4883, 0.3052, -3.109, -0.786, -13.035, -5.573, 23.927, -11.447, 27.30,,,,,,,,,,,, 0.99307, -0.02774, -0.00372, -0.11365,
 13:56:21.446,COM3,, -0.0024, -0.0132, 1.0020, -1.2817, -0.4883, 0.1831, -3.109, -0.786, -13.035, -5.560, 23.900, -11.460, 27.30,,,,,,,,,,,, 0.99307, -0.02774, -0.00372, -0.11362,
 13:56:21.463,COM3,, -0.0024, -0.0132, 1.0020, -1.2817, -0.4883, 0.1831, -3.109, -0.786, -13.030, -5.567, 23.887, -11.500, 27.30,,,,,,,,,,,, 0.99307, -0.02774, -0.00372, -0.11362,
 13:56:21.463,COM3,, -0.0024, -0.0132, 1.0020, -1.2817, -0.4883, 0.1831, -3.109, -0.786, -13.030, -5.580, 23.880, -11.527, 27.30,,,,,,,,,,,, 0.99307, -0.02774, -0.00372, -0.11362,
 13:56:21.463,COM3,, -0.0015, -0.0132, 1.0020, -1.2817, -0.4883, 0.1831, -3.109, -0.786, -13.030, -5.600, 23.893, -11.540, 27.30,,,,,,,,,,,, 0.99307, -0.02771, -0.00372, -0.11362,
 13:56:21.479,COM3,, -0.0015, -0.0146, 1.0010, -1.3428, -0.4883, 0.1221, -3.109, -0.786, -13.030, -5.620, 23.927, -11.560, 27.31,,,,,,,,,,,, 0.99307, -0.02771, -0.00372, -0.11362,
 13:56:21.479,COM3,, -0.0015, -0.0146, 1.0010, -1.3428, -0.4883, 0.1221, -3.109, -0.780, -13.030, -5.627, 23.953, -11.573, 27.31,,,,,,,,,,,, 0.99307, -0.02771, -0.00372, -0.11362,
 13:56:21.479,COM3,, -0.0015, -0.0146, 1.0010, -1.3428, -0.4883, 0.1221, -3.109, -0.780, -13.030, -5.627, 23.967, -11.567, 27.31,,,,,,,,,,,, 0.99307, -0.02771, -0.00372, -0.11362,
 13:56:21.494,COM3,, 0.0005, -0.0146, 1.0010, -1.3428, -0.4883, 0.1221, -3.109, -0.780, -13.035, -5.640, 23.980, -11.573, 27.31,,,,,,,,,,,, 0.99307, -0.02771, -0.00372, -0.11362,
 13:56:21.494,COM3,, 0.0005, -0.0171, 1.0020, -1.2817, -0.4883, 0.1831, -3.109, -0.780, -13.035, -5.633, 23.967, -11.567, 27.28,,,,,,,,,,,, 0.99307, -0.02771, -0.00372, -0.11362,
 13:56:21.494,COM3,, 0.0005, -0.0171, 1.0020, -1.2817, -0.4883, 0.1831, -3.109, -0.780, -13.030, -5.627, 23.953, -11.567, 27.28,,,,,,,,,,,, 0.99307, -0.02771, -0.00372, -0.11362,
 13:56:21.494,COM3,, 0.0005, -0.0171, 1.0020, -1.2817, -0.4883, 0.1831, -3.109, -0.780, -13.030, -5.627, 23.940, -11.573, 27.28,,,,,,,,,,,, 0.99307, -0.02771, -0.00372, -0.11362,
 13:56:21.510,COM3,, 0.0010, -0.0171, 1.0020, -1.2817, -0.4883, 0.1831, -3.109, -0.780, -13.030, -5.627, 23.940, -11.613, 27.28,,,,,,,,,,,, 0.99307, -0.02771, -0.00372, -0.11362,
 13:56:21.510,COM3,, 0.0010, -0.0186, 1.0015, -1.3428, -0.4883, 0.1831, -3.109, -0.780, -13.030, -5.620, 23.953, -11.640, 27.30,,,,,,,,,,,, 0.99307, -0.02771, -0.00372, -0.11362,
 13:56:21.510,COM3,, 0.0010, -0.0186, 1.0015, -1.3428, -0.4883, 0.1831, -3.109, -0.780, -13.030, -5.620, 23.960, -11.647, 27.30,,,,,,,,,,,, 0.99307, -0.02771, -0.00372, -0.11362,
 13:56:21.526,COM3,, 0.0010, -0.0186, 1.0015, -1.3428, -0.4883, 0.1831, -3.109, -0.780, -13.030, -5.613, 23.980, -11.640, 27.30,,,,,,,,,,,, 0.99307, -0.02771, -0.00372, -0.11362,
 13:56:21.526,COM3,, 0.0005, -0.0186, 1.0015, -1.3428, -0.4883, 0.1831, -3.109, -0.780, -13.030, -5.600, 23.980, -11.613, 27.30,,,,,,,,,,,, 0.99307, -0.02771, -0.00372, -0.11362,
 13:56:21.526,COM3,, 0.0005, -0.0171, 1.0015, -1.2817, -0.4883, 0.2441, -3.109, -0.780, -13.030, -5.640, 23.987, -11.573, 27.28,,,,,,,,,,,, 0.99307, -0.02771, -0.00372, -0.11362,
 13:56:21.543,COM3,, 0.0005, -0.0171, 1.0015, -1.2817, -0.4883, 0.2441, -3.109, -0.780, -13.030, -5.667, 23.987, -11.553, 27.28,,,,,,,,,,,, 0.99307, -0.02771, -0.00372, -0.11362,
 13:56:21.543,COM3,, 0.0005, -0.0171, 1.0015, -1.2817, -0.4883, 0.2441, -3.109, -0.780, -13.030, -5.687, 23.980, -11.527, 27.28,,,,,,,,,,,, 0.99307, -0.02771, -0.00372, -0.11362,
 13:56:21.543,COM3,, -0.0005, -0.0171, 1.0015, -1.2817, -0.4883, 0.2441, -3.104, -0.780, -13.030, -5.700, 23.980, -11.513, 27.28,,,,,,,,,,,, 0.99307, -0.02771, -0.00372, -0.11362,
 13:56:21.558,COM3,, -0.0005, -0.0161, 1.0010, -1.2817, -0.4883, 0.2441, -3.104, -0.780, -13.030, -5.687, 23.967, -11.527, 27.27,,,,,,,,,,,, 0.99307, -0.02771, -0.00372, -0.11362,
 13:56:21.558,COM3,, -0.0005, -0.0161, 1.0010, -1.2817, -0.4883, 0.2441, -3.104, -0.780, -13.030, -5.680, 23.953, -11.533, 27.27,,,,,,,,,,,, 0.99307, -0.02771, -0.00372, -0.11362,
 13:56:21.558,COM3,, -0.0005, -0.0161, 1.0010, -1.2817, -0.4883, 0.2441, -3.104, -0.780, -13.030, -5.660, 23.933, -11.540, 27.27,,,,,,,,,,,, 0.99307, -0.02771, -0.00372, -0.11362,
 13:56:21.574,COM3,, -0.0015, -0.0161, 1.0010, -1.2817, -0.4883, 0.2441, -3.104, -0.780, -13.030, -5.653, 23.927, -11.547, 27.27,,,,,,,,,,,, 0.99307, -0.02771, -0.00372, -0.11362,
 13:56:21.574,COM3,, -0.0015, -0.0156, 1.0020, -1.2817, -0.4883, 0.1831, -3.104, -0.780, -13.030, -5.653, 23.913, -11.560, 27.28,,,,,,,,,,,, 0.99307, -0.02771, -0.00372, -0.11362,
 13:56:21.574,COM3,, -0.0015, -0.0156, 1.0020, -1.2817, -0.4883, 0.1831, -3.104, -0.780, -13.030, -5.653, 23.913, -11.547, 27.28,,,,,,,,,,,, 0.99307, -0.02771, -0.00372, -0.11362,
 13:56:21.591,COM3,, -0.0015, -0.0156, 1.0020, -1.2817, -0.4883, 0.1831, -3.104, -0.780, -13.030, -5.660, 23.920, -11.533, 27.28,,,,,,,,,,,, 0.99307, -0.02771, -0.00372, -0.11362,
 13:56:21.591,COM3,, -0.0020, -0.0156, 1.0020, -1.2817, -0.4883, 0.1831, -3.104, -0.780, -13.030, -5.673, 23.920, -11.513, 27.28,,,,,,,,,,,, 0.99307, -0.02771, -0.00372, -0.11362,
 13:56:21.591,COM3,, -0.0020, -0.0156, 1.0015, -1.3428, -0.4883, 0.2441, -3.104, -0.780, -13.030, -5.680, 23.920, -11.487, 27.30,,,,,,,,,,,, 0.99307, -0.02771, -0.00372, -0.11362,
 13:56:21.591,COM3,, -0.0020, -0.0156, 1.0015, -1.3428, -0.4883, 0.2441, -3.104, -0.780, -13.030, -5.673, 23.920, -11.473, 27.30,,,,,,,,,,,, 0.99307, -0.02771, -0.00372, -0.11362,
 13:56:21.607,COM3,, -0.0020, -0.0156, 1.0015, -1.3428, -0.4883, 0.2441, -3.104, -0.780, -13.030, -5.680, 23.920, -11.447, 27.30,,,,,,,,,,,, 0.99307, -0.02771, -0.00372, -0.11362,
 13:56:21.607,COM3,, -0.0010, -0.0156, 1.0015, -1.3428, -0.4883, 0.2441, -3.104, -0.780, -13.030, -5.673, 23.920, -11.447, 27.30,,,,,,,,,,,, 0.99307, -0.02771, -0.00372, -0.11362,
 13:56:21.607,COM3,, -0.0010, -0.0156, 1.0015, -1.2817, -0.4883, 0.1831, -3.104, -0.780, -13.030, -5.653, 23.920, -11.447, 27.33,,,,,,,,,,,, 0.99307, -0.02771, -0.00372, -0.11362,
 13:56:21.623,COM3,, -0.0010, -0.0156, 1.0015, -1.2817, -0.4883, 0.1831, -3.104, -0.780, -13.030, -5.673, 23.927, -11.467, 27.33,,,,,,,,,,,, 0.99307, -0.02771, -0.00369, -0.11362,
 13:56:21.623,COM3,, -0.0010, -0.0156, 1.0015, -1.2817, -0.4883, 0.1831, -3.104, -0.780, -13.030, -5.693, 23.947, -11.480, 27.33,,,,,,,,,,,, 0.99307, -0.02771, -0.00369, -0.11362,
 13:56:21.623,COM3,, 0.0000, -0.0156, 1.0015, -1.2817, -0.4883, 0.1831, -3.104, -0.780, -13.030, -5.720, 23.960, -11.487, 27.33,,,,,,,,,,,, 0.99307, -0.02771, -0.00369, -0.11362,
 13:56:21.639,COM3,, 0.0000, -0.0151, 1.0015, -1.3428, -0.4883, 0.2441, -3.104, -0.780, -13.035, -5.747, 23.980, -11.493, 27.28,,,,,,,,,,,, 0.99307, -0.02771, -0.00369, -0.11362,
 13:56:21.639,COM3,, 0.0000, -0.0151, 1.0015, -1.3428, -0.4883, 0.2441, -3.104, -0.780, -13.035, -5.767, 24.000, -11.507, 27.28,,,,,,,,,,,, 0.99307, -0.02771, -0.00369, -0.11365,
 13:56:21.639,COM3,, 0.0000, -0.0151, 1.0015, -1.3428, -0.4883, 0.2441, -3.104, -0.780, -13.035, -5.787, 24.007, -11.533, 27.28,,,,,,,,,,,, 0.99307, -0.02771, -0.00369, -0.11365,
 13:56:21.639,COM3,, 0.0005, -0.0151, 1.0015, -1.3428, -0.4883, 0.2441, -3.104, -0.780, -13.035, -5.787, 24.007, -11.547, 27.28,,,,,,,,,,,, 0.99307, -0.02771, -0.00369, -0.11365,
 13:56:21.655,COM3,, 0.0005, -0.0156, 1.0015, -1.3428, -0.4883, 0.2441, -3.104, -0.780, -13.035, -5.780, 24.013, -11.560, 27.30,,,,,,,,,,,, 0.99307, -0.02771, -0.00369, -0.11365,
 13:56:21.655,COM3,, 0.0005, -0.0156, 1.0015, -1.3428, -0.4883, 0.2441, -3.104, -0.780, -13.035, -5.747, 24.000, -11.593, 27.30,,,,,,,,,,,, 0.99307, -0.02771, -0.00369, -0.11365,
 13:56:21.655,COM3,, 0.0005, -0.0156, 1.0015, -1.3428, -0.4883, 0.2441, -3.104, -0.780, -13.035, -5.720, 23.993, -11.607, 27.30,,,,,,,,,,,, 0.99307, -0.02771, -0.00369, -0.11365,
 13:56:21.671,COM3,, 0.0015, -0.0156, 1.0015, -1.3428, -0.4883, 0.2441, -3.104, -0.780, -13.035, -5.707, 23.980, -11.627, 27.30,,,,,,,,,,,, 0.99307, -0.02771, -0.00369, -0.11365,
 13:56:21.671,COM3,, 0.0015, -0.0161, 1.0015, -1.2817, -0.4883, 0.1831, -3.104, -0.780, -13.035, -5.693, 23.973, -11.647, 27.30,,,,,,,,,,,, 0.99307, -0.02771, -0.00369, -0.11365,
 13:56:21.671,COM3,, 0.0015, -0.0161, 1.0015, -1.2817, -0.4883, 0.1831, -3.104, -0.780, -13.035, -5.687, 23.967, -11.667, 27.30,,,,,,,,,,,, 0.99307, -0.02771, -0.00369, -0.11365,
 13:56:21.687,COM3,, 0.0015, -0.0161, 1.0015, -1.2817, -0.4883, 0.1831, -3.104, -0.780, -13.035, -5.693, 23.980, -11.673, 27.30,,,,,,,,,,,, 0.99307, -0.02771, -0.00369, -0.11368,
 13:56:21.687,COM3,, 0.0005, -0.0161, 1.0015, -1.2817, -0.4883, 0.1831, -3.104, -0.780, -13.035, -5.680, 23.993, -11.680, 27.30,,,,,,,,,,,, 0.99307, -0.02771, -0.00369, -0.11368,
 13:56:21.687,COM3,, 0.0005, -0.0161, 1.0015, -1.2817, -0.4883, 0.1831, -3.104, -0.780, -13.035, -5.667, 23.993, -11.667, 27.30,,,,,,,,,,,, 0.99307, -0.02771, -0.00369, -0.11368,
 13:56:21.703,COM3,, 0.0005, -0.0161, 1.0015, -1.2817, -0.4883, 0.1831, -3.104, -0.780, -13.035, -5.653, 24.000, -11.633, 27.30,,,,,,,,,,,, 0.99307, -0.02771, -0.00369, -0.11368,
 13:56:21.703,COM3,, 0.0005, -0.0161, 1.0015, -1.2817, -0.4883, 0.1831, -3.104, -0.780, -13.035, -5.613, 23.993, -11.587, 27.30,,,,,,,,,,,, 0.99307, -0.02771, -0.00369, -0.11365,
 13:56:21.703,COM3,, 0.0005, -0.0161, 1.0015, -1.2817, -0.4883, 0.1831, -3.104, -0.780, -13.035, -5.593, 23.973, -11.573, 27.30,,,,,,,,,,,, 0.99307, -0.02768, -0.00369, -0.11365,
 13:56:21.719,COM3,, -0.0005, -0.0161, 1.0015, -1.2817, -0.4883, 0.1831, -3.104, -0.780, -13.035, -5.573, 23.960, -11.547, 27.30,,,,,,,,,,,, 0.99307, -0.02768, -0.00369, -0.11365,
 13:56:21.719,COM3,, -0.0005, -0.0156, 1.0010, -1.2817, -0.4883, 0.2441, -3.104, -0.780, -13.035, -5.567, 23.953, -11.520, 27.30,,,,,,,,,,,, 0.99307, -0.02768, -0.00369, -0.11365,
 13:56:21.719,COM3,, -0.0005, -0.0156, 1.0010, -1.2817, -0.4883, 0.2441, -3.104, -0.780, -13.035, -5.567, 23.960, -11.540, 27.30,,,,,,,,,,,, 0.99307, -0.02768, -0.00369, -0.11365,
 13:56:21.719,COM3,, -0.0005, -0.0156, 1.0010, -1.2817, -0.4883, 0.2441, -3.104, -0.780, -13.035, -5.580, 23.960, -11.540, 27.30,,,,,,,,,,,, 0.99307, -0.02768, -0.00372, -0.11362,
 13:56:21.735,COM3,, -0.0020, -0.0156, 1.0010, -1.2817, -0.4883, 0.2441, -3.104, -0.780, -13.030, -5.580, 23.960, -11.513, 27.30,,,,,,,,,,,, 0.99307, -0.02768, -0.00372, -0.11362,
 13:56:21.735,COM3,, -0.0020, -0.0156, 1.0015, -1.2817, -0.4883, 0.2441, -3.104, -0.780, -13.030, -5.567, 23.973, -11.487, 27.28,,,,,,,,,,,, 0.99307, -0.02768, -0.00372, -0.11362,
 13:56:21.735,COM3,, -0.0020, -0.0156, 1.0015, -1.2817, -0.4883, 0.2441, -3.104, -0.780, -13.030, -5.560, 23.980, -11.433, 27.28,,,,,,,,,,,, 0.99307, -0.02768, -0.00372, -0.11362,
 13:56:21.752,COM3,, -0.0020, -0.0156, 1.0015, -1.2817, -0.4883, 0.2441, -3.104, -0.780, -13.030, -5.540, 23.987, -11.393, 27.28,,,,,,,,,,,, 0.99307, -0.02768, -0.00372, -0.11359,
 13:56:21.752,COM3,, -0.0024, -0.0156, 1.0015, -1.2817, -0.4883, 0.2441, -3.104, -0.780, -13.030, -5.540, 24.013, -11.367, 27.28,,,,,,,,,,,, 0.99307, -0.02768, -0.00372, -0.11359,
 13:56:21.752,COM3,, -0.0024, -0.0156, 1.0020, -1.3428, -0.4883, 0.2441, -3.104, -0.780, -13.024, -5.527, 24.013, -11.360, 27.31,,,,,,,,,,,, 0.99310, -0.02768, -0.00372, -0.11359,
 13:56:21.768,COM3,, -0.0024, -0.0156, 1.0020, -1.3428, -0.4883, 0.2441, -3.104, -0.780, -13.024, -5.507, 24.013, -11.367, 27.31,,,,,,,,,,,, 0.99310, -0.02768, -0.00372, -0.11356,
 13:56:21.768,COM3,, -0.0024, -0.0156, 1.0020, -1.3428, -0.4883, 0.2441, -3.104, -0.780, -13.024, -5.493, 24.007, -11.380, 27.31,,,,,,,,,,,, 0.99310, -0.02768, -0.00369, -0.11356,
 13:56:21.768,COM3,, -0.0010, -0.0156, 1.0020, -1.3428, -0.4883, 0.2441, -3.104, -0.780, -13.024, -5.487, 23.993, -11.393, 27.31,,,,,,,,,,,, 0.99310, -0.02768, -0.00369, -0.11356,
 13:56:21.784,COM3,, -0.0010, -0.0161, 1.0015, -1.3428, -0.4883, 0.1831, -3.104, -0.780, -13.024, -5.493, 23.980, -11.433, 27.31,,,,,,,,,,,, 0.99310, -0.02768, -0.00369, -0.11353,
 13:56:21.784,COM3,, -0.0010, -0.0161, 1.0015, -1.3428, -0.4883, 0.1831, -3.104, -0.780, -13.019, -5.507, 23.987, -11.460, 27.31,,,,,,,,,,,, 0.99310, -0.02768, -0.00369, -0.11353,
 13:56:21.784,COM3,, -0.0010, -0.0161, 1.0015, -1.3428, -0.4883, 0.1831, -3.104, -0.780, -13.019, -5.520, 23.987, -11.480, 27.31,,,,,,,,,,,, 0.99310, -0.02768, -0.00369, -0.11353,
 13:56:21.785,COM3,, 0.0005, -0.0161, 1.0015, -1.3428, -0.4883, 0.1831, -3.104, -0.780, -13.019, -5.527, 23.980, -11.480, 27.31,,,,,,,,,,,, 0.99310, -0.02768, -0.00369, -0.11353,
 13:56:21.800,COM3,, 0.0005, -0.0171, 1.0015, -1.2817, -0.4883, 0.1831, -3.104, -0.780, -13.019, -5.533, 23.987, -11.480, 27.31,,,,,,,,,,,, 0.99310, -0.02768, -0.00369, -0.11349,
 13:56:21.800,COM3,, 0.0005, -0.0171, 1.0015, -1.2817, -0.4883, 0.1831, -3.104, -0.780, -13.019, -5.553, 23.993, -11.473, 27.31,,,,,,,,,,,, 0.99310, -0.02768, -0.00369, -0.11349,
 13:56:21.800,COM3,, 0.0005, -0.0171, 1.0015, -1.2817, -0.4883, 0.1831, -3.104, -0.780, -13.019, -5.580, 23.993, -11.487, 27.31,,,,,,,,,,,, 0.99310, -0.02768, -0.00369, -0.11349,
 13:56:21.817,COM3,, 0.0005, -0.0171, 1.0015, -1.2817, -0.4883, 0.1831, -3.104, -0.780, -13.019, -5.613, 23.987, -11.493, 27.31,,,,,,,,,,,, 0.99310, -0.02768, -0.00369, -0.11349,
 13:56:21.817,COM3,, 0.0005, -0.0171, 1.0010, -1.3428, -0.4883, 0.2441, -3.104, -0.780, -13.019, -5.647, 23.987, -11.513, 27.25,,,,,,,,,,,, 0.99310, -0.02768, -0.00369, -0.11349,
 13:56:21.817,COM3,, 0.0005, -0.0171, 1.0010, -1.3428, -0.4883, 0.2441, -3.104, -0.780, -13.019, -5.673, 23.987, -11.527, 27.25,,,,,,,,,,,, 0.99310, -0.02768, -0.00369, -0.11349,
 13:56:21.832,COM3,, 0.0005, -0.0171, 1.0010, -1.3428, -0.4883, 0.2441, -3.104, -0.780, -13.019, -5.693, 23.993, -11.520, 27.25,,,,,,,,,,,, 0.99310, -0.02768, -0.00369, -0.11349,
 13:56:21.832,COM3,, 0.0000, -0.0171, 1.0010, -1.3428, -0.4883, 0.2441, -3.104, -0.780, -13.019, -5.700, 24.000, -11.513, 27.25,,,,,,,,,,,, 0.99310, -0.02768, -0.00369, -0.11349,
 13:56:21.832,COM3,, 0.0000, -0.0161, 1.0015, -1.2817, -0.4883, 0.2441, -3.104, -0.780, -13.019, -5.720, 24.000, -11.513, 27.28,,,,,,,,,,,, 0.99310, -0.02768, -0.00369, -0.11349,
 13:56:21.849,COM3,, 0.0000, -0.0161, 1.0015, -1.2817, -0.4883, 0.2441, -3.104, -0.780, -13.019, -5.740, 24.000, -11.527, 27.28,,,,,,,,,,,, 0.99310, -0.02768, -0.00369, -0.11349,
 13:56:21.849,COM3,, 0.0000, -0.0161, 1.0015, -1.2817, -0.4883, 0.2441, -3.104, -0.780, -13.019, -5.740, 23.993, -11.533, 27.28,,,,,,,,,,,, 0.99310, -0.02768, -0.00369, -0.11349,
 13:56:21.849,COM3,, -0.0005, -0.0161, 1.0015, -1.2817, -0.4883, 0.2441, -3.104, -0.780, -13.019, -5.753, 23.987, -11.533, 27.28,,,,,,,,,,,, 0.99310, -0.02768, -0.00369, -0.11349,
 13:56:21.864,COM3,, -0.0005, -0.0151, 1.0015, -1.3428, -0.4883, 0.2441, -3.104, -0.780, -13.019, -5.760, 23.973, -11.520, 27.31,,,,,,,,,,,, 0.99310, -0.02768, -0.00369, -0.11353,
 13:56:21.864,COM3,, -0.0005, -0.0151, 1.0015, -1.3428, -0.4883, 0.2441, -3.104, -0.780, -13.019, -5.760, 23.967, -11.513, 27.31,,,,,,,,,,,, 0.99310, -0.02768, -0.00369, -0.11353,
 13:56:21.864,COM3,, -0.0005, -0.0151, 1.0015, -1.3428, -0.4883, 0.2441, -3.104, -0.780, -13.019, -5.747, 23.947, -11.500, 27.31,,,,,,,,,,,, 0.99310, -0.02768, -0.00369, -0.11353,
 13:56:21.864,COM3,, -0.0010, -0.0151, 1.0015, -1.3428, -0.4883, 0.2441, -3.104, -0.780, -13.019, -5.740, 23.933, -11.533, 27.31,,,,,,,,,,,, 0.99310, -0.02768, -0.00369, -0.11353,
 13:56:21.880,COM3,, -0.0010, -0.0146, 1.0015, -1.3428, -0.4883, 0.1831, -3.104, -0.780, -13.019, -5.753, 23.920, -11.547, 27.31,,,,,,,,,,,, 0.99310, -0.02768, -0.00369, -0.11353,
 13:56:21.880,COM3,, -0.0010, -0.0146, 1.0015, -1.3428, -0.4883, 0.1831, -3.104, -0.780, -13.024, -5.773, 23.913, -11.553, 27.31,,,,,,,,,,,, 0.99310, -0.02768, -0.00369, -0.11353,
 13:56:21.880,COM3,, -0.0010, -0.0146, 1.0015, -1.3428, -0.4883, 0.1831, -3.104, -0.780, -13.024, -5.800, 23.920, -11.553, 27.31,,,,,,,,,,,, 0.99310, -0.02768, -0.00369, -0.11356,
 13:56:21.896,COM3,, -0.0010, -0.0146, 1.0015, -1.3428, -0.4883, 0.1831, -3.104, -0.780, -13.024, -5.833, 23.940, -11.527, 27.31,,,,,,,,,,,, 0.99310, -0.02768, -0.00369, -0.11356,
 13:56:21.896,COM3,, -0.0010, -0.0156, 1.0015, -1.3428, -0.4883, 0.1831, -3.104, -0.780, -13.024, -5.853, 23.953, -11.500, 27.30,,,,,,,,,,,, 0.99310, -0.02768, -0.00369, -0.11359,
 13:56:21.896,COM3,, -0.0010, -0.0156, 1.0015, -1.3428, -0.4883, 0.1831, -3.104, -0.780, -13.030, -5.867, 23.960, -11.493, 27.30,,,,,,,,,,,, 0.99307, -0.02768, -0.00369, -0.11359,
 13:56:21.913,COM3,, -0.0010, -0.0156, 1.0015, -1.3428, -0.4883, 0.1831, -3.104, -0.780, -13.030, -5.887, 23.960, -11.487, 27.30,,,,,,,,,,,, 0.99307, -0.02768, -0.00369, -0.11359,
 13:56:21.913,COM3,, 0.0000, -0.0156, 1.0015, -1.3428, -0.4883, 0.1831, -3.104, -0.780, -13.030, -5.887, 23.953, -11.480, 27.30,,,,,,,,,,,, 0.99307, -0.02768, -0.00369, -0.11362,
 13:56:21.913,COM3,, 0.0000, -0.0156, 1.0015, -1.2817, -0.4883, 0.2441, -3.104, -0.780, -13.035, -5.907, 23.927, -11.473, 27.30,,,,,,,,,,,, 0.99307, -0.02768, -0.00369, -0.11362,
 13:56:21.913,COM3,, 0.0000, -0.0156, 1.0015, -1.2817, -0.4883, 0.2441, -3.104, -0.780, -13.035, -5.927, 23.920, -11.500, 27.30,,,,,,,,,,,, 0.99307, -0.02768, -0.00369, -0.11365,
 13:56:21.929,COM3,, 0.0000, -0.0156, 1.0015, -1.2817, -0.4883, 0.2441, -3.104, -0.780, -13.035, -5.933, 23.913, -11.527, 27.30,,,,,,,,,,,, 0.99307, -0.02768, -0.00369, -0.11365,
 13:56:21.929,COM3,, 0.0005, -0.0156, 1.0015, -1.2817, -0.4883, 0.2441, -3.104, -0.780, -13.035, -5.927, 23.927, -11.547, 27.30,,,,,,,,,,,, 0.99307, -0.02768, -0.00369, -0.11368,
 13:56:21.929,COM3,, 0.0005, -0.0161, 1.0020, -1.2817, -0.4883, 0.1831, -3.104, -0.780, -13.041, -5.907, 23.947, -11.560, 27.30,,,,,,,,,,,, 0.99307, -0.02768, -0.00369, -0.11368,
 13:56:21.945,COM3,, 0.0005, -0.0161, 1.0020, -1.2817, -0.4883, 0.1831, -3.104, -0.780, -13.041, -5.887, 23.953, -11.527, 27.30,,,,,,,,,,,, 0.99307, -0.02768, -0.00369, -0.11371,
 13:56:21.945,COM3,, 0.0005, -0.0161, 1.0020, -1.2817, -0.4883, 0.1831, -3.104, -0.780, -13.041, -5.887, 23.967, -11.500, 27.30,,,,,,,,,,,, 0.99307, -0.02768, -0.00369, -0.11371,
 13:56:21.945,COM3,, 0.0005, -0.0161, 1.0020, -1.2817, -0.4883, 0.1831, -3.104, -0.780, -13.046, -5.880, 23.973, -11.467, 27.30,,,,,,,,,,,, 0.99307, -0.02768, -0.00369, -0.11374,
 13:56:21.961,COM3,, 0.0005, -0.0171, 1.0020, -1.2817, -0.4883, 0.2441, -3.104, -0.780, -13.046, -5.860, 23.973, -11.433, 27.31,,,,,,,,,,,, 0.99307, -0.02768, -0.00369, -0.11374,
 13:56:21.961,COM3,, 0.0005, -0.0171, 1.0020, -1.2817, -0.4883, 0.2441, -3.104, -0.780, -13.046, -5.853, 23.980, -11.413, 27.31,,,,,,,,,,,, 0.99307, -0.02768, -0.00369, -0.11374,
 13:56:21.961,COM3,, 0.0005, -0.0171, 1.0020, -1.2817, -0.4883, 0.2441, -3.104, -0.780, -13.046, -5.820, 23.973, -11.407, 27.31,,,,,,,,,,,, 0.99307, -0.02768, -0.00369, -0.11377,
 13:56:21.977,COM3,, 0.0000, -0.0171, 1.0020, -1.2817, -0.4883, 0.2441, -3.104, -0.780, -13.046, -5.820, 23.973, -11.427, 27.31,,,,,,,,,,,, 0.99307, -0.02768, -0.00369, -0.11377,
 13:56:21.977,COM3,, 0.0000, -0.0166, 1.0020, -1.3428, -0.4883, 0.1831, -3.104, -0.780, -13.052, -5.820, 23.960, -11.480, 27.30,,,,,,,,,,,, 0.99307, -0.02768, -0.00369, -0.11377,
 13:56:21.977,COM3,, 0.0000, -0.0166, 1.0020, -1.3428, -0.4883, 0.1831, -3.104, -0.780, -13.052, -5.820, 23.947, -11.527, 27.30,,,,,,,,,,,, 0.99307, -0.02768, -0.00369, -0.11377,
 13:56:21.993,COM3,, 0.0000, -0.0166, 1.0020, -1.3428, -0.4883, 0.1831, -3.104, -0.780, -13.052, -5.833, 23.933, -11.567, 27.30,,,,,,,,,,,, 0.99307, -0.02768, -0.00369, -0.11380,
 13:56:21.993,COM3,, -0.0005, -0.0166, 1.0020, -1.3428, -0.4883, 0.1831, -3.104, -0.780, -13.052, -5.827, 23.920, -11.607, 27.30,,,,,,,,,,,, 0.99307, -0.02768, -0.00369, -0.11380,
 13:56:21.993,COM3,, -0.0005, -0.0156, 1.0015, -1.2817, -0.4883, 0.2441, -3.104, -0.780, -13.052, -5.820, 23.920, -11.607, 27.28,,,,,,,,,,,, 0.99307, -0.02768, -0.00369, -0.11380,
 13:56:21.993,COM3,, -0.0005, -0.0156, 1.0015, -1.2817, -0.4883, 0.2441, -3.104, -0.780, -13.057, -5.820, 23.920, -11.620, 27.28,,,,,,,,,,,, 0.99307, -0.02768, -0.00369, -0.11383,
 13:56:22.009,COM3,, -0.0005, -0.0156, 1.0015, -1.2817, -0.4883, 0.2441, -3.104, -0.780, -13.057, -5.820, 23.920, -11.613, 27.28,,,,,,,,,,,, 0.99307, -0.02768, -0.00369, -0.11383,
 13:56:22.009,COM3,, -0.0010, -0.0156, 1.0015, -1.2817, -0.4883, 0.2441, -3.104, -0.780, -13.057, -5.807, 23.920, -11.607, 27.28,,,,,,,,,,,, 0.99307, -0.02768, -0.00369, -0.11383,
 13:56:22.009,COM3,, -0.0010, -0.0156, 1.0020, -1.3428, -0.4883, 0.1831, -3.104, -0.780, -13.057, -5.813, 23.927, -11.607, 27.30,,,,,,,,,,,, 0.99307, -0.02768, -0.00369, -0.11383,
 13:56:22.025,COM3,, -0.0010, -0.0156, 1.0020, -1.3428, -0.4883, 0.1831, -3.104, -0.780, -13.057, -5.827, 23.927, -11.613, 27.30,,,,,,,,,,,, 0.99304, -0.02768, -0.00369, -0.11386,
 13:56:22.025,COM3,, -0.0010, -0.0156, 1.0020, -1.3428, -0.4883, 0.1831, -3.104, -0.780, -13.057, -5.813, 23.913, -11.620, 27.30,,,,,,,,,,,, 0.99304, -0.02768, -0.00369, -0.11386,
 13:56:22.025,COM3,, -0.0010, -0.0156, 1.0020, -1.3428, -0.4883, 0.1831, -3.104, -0.780, -13.063, -5.813, 23.900, -11.607, 27.30,,,,,,,,,,,, 0.99304, -0.02768, -0.00369, -0.11386,
 13:56:22.041,COM3,, -0.0010, -0.0156, 1.0015, -1.3428, -0.4883, 0.1831, -3.104, -0.780, -13.063, -5.800, 23.893, -11.607, 27.30,,,,,,,,,,,, 0.99304, -0.02768, -0.00369, -0.11389,
 13:56:22.041,COM3,, -0.0010, -0.0156, 1.0015, -1.3428, -0.4883, 0.1831, -3.104, -0.780, -13.063, -5.760, 23.880, -11.613, 27.30,,,,,,,,,,,, 0.99304, -0.02768, -0.00369, -0.11389,
 13:56:22.041,COM3,, -0.0010, -0.0156, 1.0015, -1.3428, -0.4883, 0.1831, -3.104, -0.780, -13.063, -5.747, 23.887, -11.587, 27.30,,,,,,,,,,,, 0.99304, -0.02768, -0.00369, -0.11389,
 13:56:22.057,COM3,, 0.0000, -0.0156, 1.0015, -1.3428, -0.4883, 0.1831, -3.104, -0.780, -13.063, -5.747, 23.887, -11.593, 27.30,,,,,,,,,,,, 0.99304, -0.02768, -0.00369, -0.11389,
 13:56:22.057,COM3,, 0.0000, -0.0156, 1.0015, -1.2817, -0.4883, 0.1831, -3.104, -0.780, -13.063, -5.747, 23.880, -11.607, 27.30,,,,,,,,,,,, 0.99304, -0.02768, -0.00369, -0.11392,
 13:56:22.057,COM3,, 0.0000, -0.0156, 1.0015, -1.2817, -0.4883, 0.1831, -3.104, -0.780, -13.068, -5.753, 23.887, -11.587, 27.30,,,,,,,,,,,, 0.99304, -0.02768, -0.00369, -0.11392,
 13:56:22.072,COM3,, 0.0000, -0.0156, 1.0015, -1.2817, -0.4883, 0.1831, -3.104, -0.780, -13.068, -5.767, 23.880, -11.600, 27.30,,,,,,,,,,,, 0.99304, -0.02768, -0.00369, -0.11392,
 13:56:22.072,COM3,, 0.0000, -0.0156, 1.0015, -1.2817, -0.4883, 0.1831, -3.104, -0.780, -13.068, -5.787, 23.880, -11.600, 27.30,,,,,,,,,,,, 0.99304, -0.02768, -0.00369, -0.11392,
 13:56:22.072,COM3,, 0.0000, -0.0156, 1.0020, -1.2817, -0.5493, 0.1831, -3.104, -0.780, -13.068, -5.767, 23.880, -11.573, 27.27,,,,,,,,,,,, 0.99304, -0.02768, -0.00369, -0.11395,
 13:56:22.088,COM3,, 0.0000, -0.0156, 1.0020, -1.2817, -0.5493, 0.1831, -3.104, -0.780, -13.068, -5.767, 23.867, -11.553, 27.27,,,,,,,,,,,, 0.99304, -0.02768, -0.00369, -0.11395,
 13:56:22.088,COM3,, 0.0000, -0.0156, 1.0020, -1.2817, -0.5493, 0.1831, -3.104, -0.780, -13.068, -5.767, 23.860, -11.533, 27.27,,,,,,,,,,,, 0.99304, -0.02768, -0.00369, -0.11395,
 13:56:22.088,COM3,, 0.0005, -0.0156, 1.0020, -1.2817, -0.5493, 0.1831, -3.104, -0.780, -13.074, -5.767, 23.860, -11.507, 27.27,,,,,,,,,,,, 0.99304, -0.02768, -0.00369, -0.11395,
 13:56:22.088,COM3,, 0.0005, -0.0161, 1.0015, -1.2817, -0.4883, 0.2441, -3.098, -0.780, -13.074, -5.787, 23.860, -11.480, 27.30,,,,,,,,,,,, 0.99304, -0.02768, -0.00369, -0.11398,
 13:56:22.104,COM3,, 0.0005, -0.0161, 1.0015, -1.2817, -0.4883, 0.2441, -3.098, -0.780, -13.074, -5.787, 23.867, -11.480, 27.30,,,,,,,,,,,, 0.99304, -0.02768, -0.00369, -0.11398,
 13:56:22.104,COM3,, 0.0005, -0.0161, 1.0015, -1.2817, -0.4883, 0.2441, -3.098, -0.780, -13.074, -5.787, 23.873, -11.500, 27.30,,,,,,,,,,,, 0.99304, -0.02765, -0.00369, -0.11398,
 13:56:22.104,COM3,, 0.0000, -0.0161, 1.0015, -1.2817, -0.4883, 0.2441, -3.098, -0.780, -13.074, -5.773, 23.867, -11.520, 27.30,,,,,,,,,,,, 0.99304, -0.02765, -0.00369, -0.11398,
 13:56:22.120,COM3,, 0.0000, -0.0156, 1.0015, -1.3428, -0.4883, 0.2441, -3.098, -0.780, -13.074, -5.747, 23.867, -11.553, 27.33,,,,,,,,,,,, 0.99304, -0.02765, -0.00369, -0.11398,
 13:56:22.120,COM3,, 0.0000, -0.0156, 1.0015, -1.3428, -0.4883, 0.2441, -3.098, -0.780, -13.074, -5.753, 23.867, -11.567, 27.33,,,,,,,,,,,, 0.99304, -0.02765, -0.00369, -0.11398,
 13:56:22.120,COM3,, 0.0000, -0.0156, 1.0015, -1.3428, -0.4883, 0.2441, -3.098, -0.780, -13.074, -5.740, 23.873, -11.573, 27.33,,,,,,,,,,,, 0.99304, -0.02768, -0.00369, -0.11398,
 13:56:22.136,COM3,, -0.0005, -0.0156, 1.0015, -1.3428, -0.4883, 0.2441, -3.098, -0.780, -13.074, -5.747, 23.893, -11.573, 27.33,,,,,,,,,,,, 0.99304, -0.02768, -0.00369, -0.11401,
 13:56:22.136,COM3,, -0.0005, -0.0156, 1.0015, -1.3428, -0.4883, 0.2441, -3.098, -0.780, -13.074, -5.753, 23.920, -11.600, 27.28,,,,,,,,,,,, 0.99304, -0.02768, -0.00369, -0.11401,
 13:56:22.136,COM3,, -0.0005, -0.0156, 1.0015, -1.3428, -0.4883, 0.2441, -3.098, -0.780, -13.074, -5.740, 23.940, -11.647, 27.28,,,,,,,,,,,, 0.99304, -0.02768, -0.00369, -0.11401,
 13:56:22.151,COM3,, -0.0005, -0.0156, 1.0015, -1.3428, -0.4883, 0.2441, -3.104, -0.780, -13.074, -5.733, 23.967, -11.687, 27.28,,,,,,,,,,,, 0.99304, -0.02768, -0.00369, -0.11401,
 13:56:22.151,COM3,, -0.0010, -0.0156, 1.0015, -1.3428, -0.4883, 0.2441, -3.104, -0.780, -13.074, -5.740, 23.980, -11.707, 27.28,,,,,,,,,,,, 0.99304, -0.02768, -0.00369, -0.11401,
 13:56:22.151,COM3,, -0.0010, -0.0161, 1.0015, -1.2817, -0.4883, 0.1831, -3.098, -0.780, -13.079, -5.740, 23.987, -11.700, 27.30,,,,,,,,,,,, 0.99304, -0.02768, -0.00369, -0.11401,
 13:56:22.167,COM3,, -0.0010, -0.0161, 1.0015, -1.2817, -0.4883, 0.1831, -3.098, -0.780, -13.079, -5.740, 23.973, -11.687, 27.30,,,,,,,,,,,, 0.99304, -0.02768, -0.00369, -0.11401,
 13:56:22.167,COM3,, -0.0010, -0.0161, 1.0015, -1.2817, -0.4883, 0.1831, -3.098, -0.780, -13.079, -5.740, 23.953, -11.647, 27.30,,,,,,,,,,,, 0.99304, -0.02765, -0.00369, -0.11401,
 13:56:22.167,COM3,, -0.0010, -0.0161, 1.0015, -1.2817, -0.4883, 0.1831, -3.098, -0.780, -13.079, -5.727, 23.940, -11.620, 27.30,,,,,,,,,,,, 0.99304, -0.02765, -0.00369, -0.11401,
 13:56:22.183,COM3,, -0.0010, -0.0166, 1.0015, -1.2817, -0.4883, 0.2441, -3.098, -0.780, -13.079, -5.720, 23.933, -11.587, 27.30,,,,,,,,,,,, 0.99304, -0.02765, -0.00369, -0.11401,
 13:56:22.183,COM3,, -0.0010, -0.0166, 1.0015, -1.2817, -0.4883, 0.2441, -3.098, -0.780, -13.079, -5.720, 23.933, -11.553, 27.30,,,,,,,,,,,, 0.99304, -0.02765, -0.00369, -0.11401,
 13:56:22.183,COM3,, -0.0010, -0.0166, 1.0015, -1.2817, -0.4883, 0.2441, -3.098, -0.780, -13.079, -5.707, 23.947, -11.527, 27.30,,,,,,,,,,,, 0.99304, -0.02765, -0.00369, -0.11401,
 13:56:22.183,COM3,, 0.0000, -0.0166, 1.0015, -1.2817, -0.4883, 0.2441, -3.098, -0.780, -13.079, -5.687, 23.967, -11.487, 27.30,,,,,,,,,,,, 0.99304, -0.02765, -0.00369, -0.11401,
 13:56:22.199,COM3,, 0.0000, -0.0171, 1.0015, -1.3428, -0.4883, 0.2441, -3.098, -0.780, -13.079, -5.660, 23.980, -11.447, 27.30,,,,,,,,,,,, 0.99304, -0.02765, -0.00369, -0.11401,
 13:56:22.199,COM3,, 0.0000, -0.0171, 1.0015, -1.3428, -0.4883, 0.2441, -3.098, -0.780, -13.079, -5.640, 23.973, -11.453, 27.30,,,,,,,,,,,, 0.99304, -0.02765, -0.00369, -0.11401,
 13:56:22.199,COM3,, 0.0000, -0.0171, 1.0015, -1.3428, -0.4883, 0.2441, -3.098, -0.780, -13.079, -5.607, 23.973, -11.487, 27.30,,,,,,,,,,,, 0.99304, -0.02765, -0.00369, -0.11401,
 13:56:22.215,COM3,, 0.0000, -0.0171, 1.0015, -1.3428, -0.4883, 0.2441, -3.098, -0.780, -13.074, -5.580, 23.967, -11.500, 27.30,,,,,,,,,,,, 0.99304, -0.02765, -0.00369, -0.11401,
 13:56:22.215,COM3,, 0.0000, -0.0166, 1.0015, -1.2817, -0.4883, 0.1831, -3.098, -0.780, -13.074, -5.567, 23.960, -11.500, 27.30,,,,,,,,,,,, 0.99304, -0.02765, -0.00369, -0.11398,
 13:56:22.215,COM3,, 0.0000, -0.0166, 1.0015, -1.2817, -0.4883, 0.1831, -3.098, -0.780, -13.074, -5.553, 23.973, -11.507, 27.30,,,,,,,,,,,, 0.99304, -0.02765, -0.00369, -0.11398,
 13:56:22.231,COM3,, 0.0000, -0.0166, 1.0015, -1.2817, -0.4883, 0.1831, -3.098, -0.780, -13.074, -5.567, 23.980, -11.487, 27.30,,,,,,,,,,,, 0.99304, -0.02765, -0.00369, -0.11398,
 13:56:22.231,COM3,, 0.0000, -0.0166, 1.0015, -1.2817, -0.4883, 0.1831, -3.098, -0.780, -13.074, -5.587, 23.987, -11.480, 27.30,,,,,,,,,,,, 0.99304, -0.02765, -0.00369, -0.11398,
 13:56:22.231,COM3,, 0.0000, -0.0156, 1.0015, -1.2817, -0.4883, 0.2441, -3.098, -0.780, -13.074, -5.620, 23.980, -11.513, 27.30,,,,,,,,,,,, 0.99304, -0.02765, -0.00369, -0.11398,
 13:56:22.247,COM3,, 0.0000, -0.0156, 1.0015, -1.2817, -0.4883, 0.2441, -3.098, -0.780, -13.074, -5.647, 23.980, -11.533, 27.30,,,,,,,,,,,, 0.99304, -0.02765, -0.00369, -0.11398,
 13:56:22.247,COM3,, 0.0000, -0.0156, 1.0015, -1.2817, -0.4883, 0.2441, -3.098, -0.780, -13.074, -5.653, 23.973, -11.547, 27.30,,,,,,,,,,,, 0.99304, -0.02765, -0.00369, -0.11395,
 13:56:22.247,COM3,, -0.0005, -0.0156, 1.0015, -1.2817, -0.4883, 0.2441, -3.098, -0.780, -13.074, -5.673, 23.980, -11.593, 27.30,,,,,,,,,,,, 0.99304, -0.02765, -0.00369, -0.11395,
 13:56:22.262,COM3,, -0.0005, -0.0156, 1.0020, -1.3428, -0.4883, 0.1831, -3.098, -0.780, -13.074, -5.673, 23.973, -11.627, 27.28,,,,,,,,,,,, 0.99304, -0.02765, -0.00369, -0.11395,
 13:56:22.262,COM3,, -0.0005, -0.0156, 1.0020, -1.3428, -0.4883, 0.1831, -3.098, -0.780, -13.074, -5.673, 23.960, -11.673, 27.28,,,,,,,,,,,, 0.99304, -0.02765, -0.00369, -0.11395,
 13:56:22.262,COM3,, -0.0005, -0.0156, 1.0020, -1.3428, -0.4883, 0.1831, -3.098, -0.780, -13.074, -5.667, 23.947, -11.700, 27.28,,,,,,,,,,,, 0.99304, -0.02765, -0.00369, -0.11395,
 13:56:22.277,COM3,, -0.0010, -0.0156, 1.0020, -1.3428, -0.4883, 0.1831, -3.098, -0.780, -13.074, -5.647, 23.933, -11.713, 27.28,,,,,,,,,,,, 0.99304, -0.02765, -0.00369, -0.11395,
 13:56:22.277,COM3,, -0.0010, -0.0161, 1.0010, -1.2817, -0.4883, 0.2441, -3.098, -0.780, -13.074, -5.640, 23.920, -11.720, 27.28,,,,,,,,,,,, 0.99304, -0.02765, -0.00369, -0.11395,
 13:56:22.277,COM3,, -0.0010, -0.0161, 1.0010, -1.2817, -0.4883, 0.2441, -3.098, -0.780, -13.068, -5.653, 23.907, -11.713, 27.28,,,,,,,,,,,, 0.99304, -0.02765, -0.00369, -0.11395,
 13:56:22.277,COM3,, -0.0010, -0.0161, 1.0010, -1.2817, -0.4883, 0.2441, -3.098, -0.780, -13.068, -5.680, 23.907, -11.720, 27.28,,,,,,,,,,,, 0.99304, -0.02765, -0.00369, -0.11395,
 13:56:22.293,COM3,, -0.0005, -0.0161, 1.0010, -1.2817, -0.4883, 0.2441, -3.098, -0.780, -13.074, -5.727, 23.907, -11.707, 27.28,,,,,,,,,,,, 0.99304, -0.02765, -0.00369, -0.11395,
 13:56:22.293,COM3,, -0.0005, -0.0156, 1.0010, -1.2817, -0.4883, 0.1831, -3.098, -0.780, -13.074, -5.753, 23.920, -11.673, 27.28,,,,,,,,,,,, 0.99304, -0.02765, -0.00369, -0.11398,
 13:56:22.293,COM3,, -0.0005, -0.0156, 1.0010, -1.2817, -0.4883, 0.1831, -3.098, -0.780, -13.074, -5.753, 23.927, -11.647, 27.28,,,,,,,,,,,, 0.99304, -0.02765, -0.00369, -0.11398,
 13:56:22.309,COM3,, -0.0005, -0.0156, 1.0010, -1.2817, -0.4883, 0.1831, -3.098, -0.780, -13.074, -5.747, 23.927, -11.627, 27.28,,,,,,,,,,,, 0.99304, -0.02765, -0.00369, -0.11398,
 13:56:22.309,COM3,, 0.0000, -0.0156, 1.0010, -1.2817, -0.4883, 0.1831, -3.098, -0.780, -13.074, -5.733, 23.927, -11.640, 27.28,,,,,,,,,,,, 0.99304, -0.02765, -0.00369, -0.11398,
 13:56:22.309,COM3,, 0.0000, -0.0161, 1.0015, -1.3428, -0.4883, 0.1831, -3.098, -0.780, -13.074, -5.720, 23.933, -11.660, 27.30,,,,,,,,,,,, 0.99304, -0.02765, -0.00369, -0.11398,
 13:56:22.326,COM3,, 0.0000, -0.0161, 1.0015, -1.3428, -0.4883, 0.1831, -3.098, -0.780, -13.074, -5.720, 23.933, -11.673, 27.30,,,,,,,,,,,, 0.99304, -0.02765, -0.00369, -0.11398,
 13:56:22.326,COM3,, 0.0000, -0.0161, 1.0015, -1.3428, -0.4883, 0.1831, -3.098, -0.780, -13.074, -5.720, 23.940, -11.680, 27.30,,,,,,,,,,,, 0.99304, -0.02765, -0.00369, -0.11398,
 13:56:22.326,COM3,, 0.0005, -0.0161, 1.0015, -1.3428, -0.4883, 0.1831, -3.098, -0.780, -13.074, -5.693, 23.947, -11.680, 27.30,,,,,,,,,,,, 0.99304, -0.02765, -0.00369, -0.11398,
 13:56:22.342,COM3,, 0.0005, -0.0156, 1.0015, -1.3428, -0.5493, 0.2441, -3.098, -0.780, -13.074, -5.680, 23.940, -11.687, 27.27,,,,,,,,,,,, 0.99304, -0.02765, -0.00369, -0.11398,
 13:56:22.342,COM3,, 0.0005, -0.0156, 1.0015, -1.3428, -0.5493, 0.2441, -3.098, -0.780, -13.074, -5.660, 23.927, -11.713, 27.27,,,,,,,,,,,, 0.99304, -0.02765, -0.00369, -0.11398,
 13:56:22.342,COM3,, 0.0005, -0.0156, 1.0015, -1.3428, -0.5493, 0.2441, -3.098, -0.780, -13.074, -5.647, 23.907, -11.740, 27.27,,,,,,,,,,,, 0.99304, -0.02765, -0.00372, -0.11398,
 13:56:22.358,COM3,, 0.0000, -0.0156, 1.0015, -1.3428, -0.5493, 0.2441, -3.098, -0.786, -13.074, -5.660, 23.900, -11.760, 27.27,,,,,,,,,,,, 0.99304, -0.02765, -0.00372, -0.11398,
 13:56:22.358,COM3,, 0.0000, -0.0166, 1.0015, -1.2817, -0.4883, 0.2441, -3.098, -0.786, -13.074, -5.673, 23.893, -11.767, 27.30,,,,,,,,,,,, 0.99304, -0.02765, -0.00372, -0.11398,
 13:56:22.358,COM3,, 0.0000, -0.0166, 1.0015, -1.2817, -0.4883, 0.2441, -3.098, -0.786, -13.074, -5.700, 23.893, -11.760, 27.30,,,,,,,,,,,, 0.99304, -0.02765, -0.00372, -0.11398,
 13:56:22.358,COM3,, 0.0000, -0.0166, 1.0015, -1.2817, -0.4883, 0.2441, -3.098, -0.786, -13.074, -5.720, 23.913, -11.727, 27.30,,,,,,,,,,,, 0.99304, -0.02765, -0.00372, -0.11398,
 13:56:22.374,COM3,, 0.0000, -0.0166, 1.0015, -1.2817, -0.4883, 0.2441, -3.098, -0.786, -13.074, -5.720, 23.920, -11.693, 27.30,,,,,,,,,,,, 0.99304, -0.02765, -0.00372, -0.11398,
 13:56:22.374,COM3,, 0.0000, -0.0166, 1.0015, -1.3428, -0.4883, 0.1831, -3.098, -0.786, -13.074, -5.727, 23.920, -11.680, 27.28,,,,,,,,,,,, 0.99304, -0.02765, -0.00372, -0.11398,
 13:56:22.374,COM3,, 0.0000, -0.0166, 1.0015, -1.3428, -0.4883, 0.1831, -3.098, -0.786, -13.074, -5.713, 23.913, -11.667, 27.28,,,,,,,,,,,, 0.99304, -0.02765, -0.00372, -0.11401,
 13:56:22.391,COM3,, 0.0000, -0.0166, 1.0015, -1.3428, -0.4883, 0.1831, -3.098, -0.786, -13.074, -5.713, 23.900, -11.680, 27.28,,,,,,,,,,,, 0.99304, -0.02765, -0.00372, -0.11401,
 13:56:22.391,COM3,, 0.0000, -0.0166, 1.0015, -1.3428, -0.4883, 0.1831, -3.098, -0.786, -13.074, -5.720, 23.893, -11.700, 27.28,,,,,,,,,,,, 0.99304, -0.02765, -0.00372, -0.11401,
 13:56:22.391,COM3,, -0.0010, -0.0166, 1.0015, -1.3428, -0.4883, 0.1831, -3.098, -0.786, -13.074, -5.707, 23.887, -11.693, 27.28,,,,,,,,,,,, 0.99304, -0.02765, -0.00372, -0.11401,
 13:56:22.406,COM3,, -0.0010, -0.0151, 1.0010, -1.2817, -0.5493, 0.1831, -3.098, -0.786, -13.079, -5.700, 23.873, -11.680, 27.28,,,,,,,,,,,, 0.99304, -0.02765, -0.00372, -0.11401,
 13:56:22.406,COM3,, -0.0010, -0.0151, 1.0010, -1.2817, -0.5493, 0.1831, -3.098, -0.786, -13.079, -5.680, 23.867, -11.673, 27.28,,,,,,,,,,,, 0.99304, -0.02765, -0.00372, -0.11401,
 13:56:22.406,COM3,, -0.0010, -0.0151, 1.0010, -1.2817, -0.5493, 0.1831, -3.098, -0.786, -13.079, -5.660, 23.860, -11.687, 27.28,,,,,,,,,,,, 0.99304, -0.02765, -0.00372, -0.11401,
 13:56:22.422,COM3,, -0.0010, -0.0151, 1.0010, -1.2817, -0.5493, 0.1831, -3.098, -0.786, -13.079, -5.653, 23.860, -11.713, 27.28,,,,,,,,,,,, 0.99304, -0.02765, -0.00372, -0.11401,
 13:56:22.422,COM3,, -0.0010, -0.0156, 1.0015, -1.3428, -0.4883, 0.1831, -3.098, -0.786, -13.079, -5.653, 23.867, -11.720, 27.30,,,,,,,,,,,, 0.99304, -0.02765, -0.00372, -0.11401,
 13:56:22.422,COM3,, -0.0010, -0.0156, 1.0015, -1.3428, -0.4883, 0.1831, -3.098, -0.786, -13.079, -5.667, 23.880, -11.707, 27.30,,,,,,,,,,,, 0.99304, -0.02765, -0.00372, -0.11401,
 13:56:22.422,COM3,, -0.0010, -0.0156, 1.0015, -1.3428, -0.4883, 0.1831, -3.098, -0.786, -13.079, -5.700, 23.893, -11.687, 27.30,,,,,,,,,,,, 0.99304, -0.02765, -0.00372, -0.11401,
 13:56:22.439,COM3,, -0.0005, -0.0156, 1.0015, -1.3428, -0.4883, 0.1831, -3.098, -0.786, -13.079, -5.733, 23.913, -11.660, 27.30,,,,,,,,,,,, 0.99304, -0.02765, -0.00372, -0.11401,
 13:56:22.439,COM3,, -0.0005, -0.0156, 1.0015, -1.2817, -0.4883, 0.1831, -3.098, -0.786, -13.079, -5.767, 23.907, -11.633, 27.30,,,,,,,,,,,, 0.99304, -0.02765, -0.00372, -0.11404,
 13:56:22.439,COM3,, -0.0005, -0.0156, 1.0015, -1.2817, -0.4883, 0.1831, -3.098, -0.786, -13.079, -5.800, 23.913, -11.633, 27.30,,,,,,,,,,,, 0.99304, -0.02765, -0.00372, -0.11404,
